File: Materials/Tabulated/Stewart2012_V2O3_Ellipsometry_eps1.csv
#First row: Temperature [K]; First column: Frequency [cm-1]

0,120,140,150,160,180,200,230,260,280
51.7808,8.61397,10.00305,11.57869,9.23266,-96.95299,-132.65,-107.905,-97.10763,-50.53881
54.0391,8.61397,10.00288,11.57819,9.23268,-96.82674,-132.467,-107.804,-97.01057,-50.50569
56.2168,8.61398,10.00271,11.57768,9.2327,-96.69806,-132.28,-107.7,-96.91169,-50.47191
58.3945,8.61398,10.00253,11.57716,9.23272,-96.56696,-132.09,-107.595,-96.81099,-50.43748
60.6529,8.61398,10.00235,11.57661,9.23274,-96.43345,-131.897,-107.487,-96.70848,-50.4024
62.8306,8.61399,10.00216,11.57606,9.23276,-96.29755,-131.7,-107.378,-96.60417,-50.36667
65.0083,8.61399,10.00196,11.57548,9.23278,-96.15929,-131.501,-107.267,-96.49807,-50.33029
67.2666,8.614,10.00176,11.5749,9.23281,-96.01866,-131.298,-107.154,-96.3902,-50.29328
69.4443,8.614,10.00155,11.57429,9.23283,-95.8757,-131.092,-107.039,-96.28055,-50.25563
71.622,8.614,10.00134,11.57367,9.23285,-95.73041,-130.883,-106.923,-96.16915,-50.21734
73.8804,8.61401,10.00112,11.57304,9.23287,-95.58281,-130.672,-106.804,-96.05601,-50.17841
76.0581,8.61401,10.0009,11.57239,9.2329,-95.43292,-130.457,-106.684,-95.94113,-50.13886
78.2358,8.61402,10.00067,11.57172,9.23292,-95.28076,-130.239,-106.562,-95.82453,-50.09868
80.4941,8.61402,10.00043,11.57104,9.23295,-95.12635,-130.018,-106.438,-95.70622,-50.05787
82.6718,8.61403,10.00019,11.57034,9.23297,-94.9697,-129.7948,-106.312,-95.5862,-50.01645
84.8495,8.61403,9.99995,11.56963,9.233,-94.81083,-129.5684,-106.185,-95.46451,-49.9744
87.1079,8.61404,9.9997,11.5689,9.23303,-94.64975,-129.339,-106.056,-95.34113,-49.93174
89.2856,8.61405,9.99944,11.56816,9.23305,-94.48649,-129.107,-105.925,-95.21609,-49.88847
91.4633,8.61405,9.99917,11.5674,9.23308,-94.32107,-128.872,-105.7918,-95.08941,-49.84458
93.7216,8.61406,9.9989,11.56663,9.23311,-94.1535,-128.635,-105.657,-94.96108,-49.8001
95.8993,8.61406,9.99863,11.56584,9.23314,-93.9838,-128.395,-105.521,-94.83113,-49.75501
98.077,8.61407,9.99835,11.56503,9.23317,-93.81199,-128.152,-105.3833,-94.69956,-49.70932
100.255,8.61408,9.99806,11.56421,9.2332,-93.63809,-127.906,-105.244,-94.56639,-49.66303
102.513,8.61408,9.99777,11.56338,9.23323,-93.46212,-127.6582,-105.1025,-94.43163,-49.61615
104.691,8.61409,9.99747,11.56253,9.23326,-93.2841,-127.408,-104.9596,-94.2953,-49.56869
106.868,8.6141,9.99717,11.56166,9.23329,-93.10404,-127.154,-104.815,-94.15741,-49.52063
109.127,8.6141,9.99686,11.56078,9.23332,-92.92197,-126.899,-104.669,-94.01796,-49.472
111.305,8.61411,9.99655,11.55988,9.23335,-92.73791,-126.6406,-104.521,-93.87698,-49.42279
113.563,8.61412,9.99622,11.55897,9.23339,-92.55188,-126.38,-104.372,-93.73448,-49.373
115.741,8.61412,9.9959,11.55804,9.23342,-92.3639,-126.117,-104.221,-93.59047,-49.32264
117.918,8.61413,9.99557,11.5571,9.23345,-92.17398,-125.852,-104.068,-93.44496,-49.27171
120.096,8.61414,9.99523,11.55614,9.23349,-91.98215,-125.584,-103.914,-93.29797,-49.22021
122.354,8.61415,9.99489,11.55517,9.23352,-91.78843,-125.314,-103.758,-93.14951,-49.16816
124.532,8.61415,9.99454,11.55418,9.23356,-91.59283,-125.042,-103.601,-92.9996,-49.11555
126.71,8.61416,9.99418,11.55318,9.23359,-91.39539,-124.768,-103.442,-92.84825,-49.06239
128.968,8.61417,9.99382,11.55216,9.23363,-91.19612,-124.491,-103.282,-92.69546,-49.00867
131.146,8.61418,9.99346,11.55113,9.23366,-90.99503,-124.213,-103.12,-92.54127,-48.95441
133.323,8.61419,9.99309,11.55008,9.2337,-90.79216,-123.932,-102.957,-92.38568,-48.89961
135.582,8.6142,9.99271,11.54902,9.23374,-90.58753,-123.6489,-102.792,-92.2287,-48.84427
137.76,8.6142,9.99233,11.54794,9.23378,-90.38114,-123.364,-102.6257,-92.07035,-48.7884
139.937,8.61421,9.99194,11.54685,9.23382,-90.17304,-123.077,-102.458,-91.91065,-48.73199
142.196,8.61422,9.99155,11.54574,9.23386,-89.96323,-122.788,-102.289,-91.7496,-48.67506
144.373,8.61423,9.99115,11.54462,9.23389,-89.75173,-122.497,-102.118,-91.58722,-48.61761
146.551,8.61424,9.99074,11.54348,9.23393,-89.53858,-122.205,-101.9466,-91.42354,-48.55963
148.809,8.61425,9.99033,11.54232,9.23398,-89.32379,-121.91,-101.773,-91.25855,-48.50115
150.987,8.61426,9.98992,11.54116,9.23402,-89.10738,-121.614,-101.5987,-91.09228,-48.44215
153.165,8.61427,9.98949,11.53997,9.23406,-88.88938,-121.315,-101.423,-90.92474,-48.38264
155.423,8.61428,9.98907,11.53878,9.2341,-88.6698,-121.015,-101.245,-90.75595,-48.32264
157.601,8.61429,9.98864,11.53756,9.23414,-88.44867,-120.714,-101.067,-90.58591,-48.26213
159.778,8.6143,9.9882,11.53634,9.23419,-88.22601,-120.41,-100.887,-90.41465,-48.20113
162.037,8.61431,9.98775,11.53509,9.23423,-88.00184,-120.105,-100.706,-90.24219,-48.13964
164.214,8.61432,9.9873,11.53384,9.23427,-87.77618,-119.798,-100.523,-90.06852,-48.07766
166.392,8.61433,9.98685,11.53257,9.23432,-87.54906,-119.49,-100.339,-89.89367,-48.0152
168.651,8.61434,9.98639,11.53128,9.23436,-87.3205,-119.18,-100.154,-89.71766,-47.95226
170.828,8.61435,9.98592,11.52998,9.23441,-87.09051,-118.869,-99.96791,-89.5405,-47.88885
173.006,8.61436,9.98545,11.52866,9.23445,-86.85913,-118.556,-99.78042,-89.3622,-47.82497
175.264,8.61437,9.98497,11.52733,9.2345,-86.62637,-118.242,-99.59173,-89.18278,-47.76062
177.442,8.61439,9.98449,11.52599,9.23455,-86.39225,-117.926,-99.40186,-89.00226,-47.69582
179.62,8.6144,9.984,11.52463,9.23459,-86.1568,-117.609,-99.21081,-88.82064,-47.63055
181.878,8.61441,9.98351,11.52325,9.23464,-85.92004,-117.291,-99.01861,-88.63795,-47.56483
184.056,8.61442,9.98301,11.52187,9.23469,-85.68199,-116.971,-98.82527,-88.4542,-47.49867
186.233,8.61443,9.9825,11.52046,9.23474,-85.44267,-116.65,-98.6308,-88.2694,-47.43205
188.492,8.61444,9.98199,11.51904,9.23479,-85.20211,-116.328,-98.43523,-88.08357,-47.365
190.669,8.61446,9.98148,11.51761,9.23484,-84.96032,-116.004,-98.23855,-87.89673,-47.29752
192.847,8.61447,9.98096,11.51617,9.23489,-84.71734,-115.679,-98.0408,-87.70888,-47.2296
195.106,8.61448,9.98043,11.51471,9.23494,-84.47317,-115.354,-97.84199,-87.52005,-47.16125
197.283,8.61449,9.9799,11.51323,9.23499,-84.22784,-115.027,-97.64213,-87.33025,-47.09249
199.461,8.61451,9.97936,11.51174,9.23504,-83.98138,-114.699,-97.44123,-87.13949,-47.0233
201.719,8.61452,9.97882,11.51024,9.23509,-83.73381,-114.3696,-97.23931,-86.9478,-46.9537
203.897,8.61453,9.97827,11.50872,9.23515,-83.48514,-114.039,-97.03639,-86.75517,-46.88369
206.075,8.61454,9.97771,11.50719,9.2352,-83.2354,-113.7084,-96.83249,-86.56164,-46.81327
208.333,8.61456,9.97716,11.50564,9.23525,-82.98461,-113.376,-96.62761,-86.36722,-46.74246
210.511,8.61457,9.97659,11.50408,9.23531,-82.73279,-113.043,-96.42178,-86.17191,-46.67124
212.688,8.61458,9.97602,11.5025,9.23536,-82.47997,-112.709,-96.21501,-85.97574,-46.59964
214.947,8.6146,9.97544,11.50091,9.23542,-82.22617,-112.375,-96.0073,-85.77872,-46.52764
217.124,8.61461,9.97486,11.49931,9.23547,-81.97139,-112.039,-95.79869,-85.58086,-46.45527
219.302,8.61463,9.97428,11.49769,9.23553,-81.71568,-111.7028,-95.58919,-85.38218,-46.38251
221.561,8.61464,9.97368,11.49606,9.23559,-81.45905,-111.366,-95.3788,-85.1827,-46.30938
223.738,8.61465,9.97309,11.49442,9.23564,-81.20152,-111.028,-95.16754,-84.98243,-46.23588
225.916,8.61467,9.97248,11.49276,9.2357,-80.94312,-110.689,-94.95544,-84.78138,-46.16201
228.174,8.61468,9.97187,11.49108,9.23576,-80.68385,-110.35,-94.7425,-84.57957,-46.08778
230.352,8.6147,9.97126,11.4894,9.23582,-80.42375,-110.01,-94.52875,-84.37702,-46.0132
232.53,8.61471,9.97064,11.48769,9.23588,-80.16284,-109.669,-94.31418,-84.17373,-45.93826
234.788,8.61473,9.97002,11.48598,9.23593,-79.90113,-109.328,-94.09883,-83.96973,-45.86297
236.966,8.61474,9.96939,11.48425,9.23599,-79.63865,-108.986,-93.8827,-83.76503,-45.78734
239.143,8.61476,9.96875,11.48251,9.23606,-79.37542,-108.644,-93.66582,-83.55964,-45.71137
241.402,8.61477,9.96811,11.48075,9.23612,-79.11146,-108.301,-93.44819,-83.35358,-45.63507
243.579,8.61479,9.96747,11.47898,9.23618,-78.84678,-107.9582,-93.22983,-83.14686,-45.55843
245.757,8.6148,9.96681,11.4772,9.23624,-78.58141,-107.614,-93.01075,-82.9395,-45.48147
248.015,8.61482,9.96616,11.4754,9.2363,-78.31538,-107.27,-92.79097,-82.73151,-45.40419
250.193,8.61483,9.9655,11.47359,9.23636,-78.04869,-106.926,-92.57051,-82.5229,-45.32659
252.371,8.61485,9.96483,11.47176,9.23643,-77.78138,-106.5809,-92.34938,-82.3137,-45.24868
254.629,8.61487,9.96416,11.46993,9.23649,-77.51346,-106.236,-92.12759,-82.10391,-45.17045
256.807,8.61488,9.96348,11.46807,9.23656,-77.24494,-105.89,-91.90516,-81.89355,-45.09193
258.985,8.6149,9.96279,11.46621,9.23662,-76.97586,-105.544,-91.6821,-81.68263,-45.0131
261.162,8.61492,9.96211,11.46433,9.23669,-76.70623,-105.198,-91.45843,-81.47117,-44.93398
263.421,8.61493,9.96141,11.46244,9.23675,-76.43606,-104.852,-91.23416,-81.25918,-44.85457
265.598,8.61495,9.96071,11.46053,9.23682,-76.16539,-104.505,-91.00931,-81.04668,-44.77487
267.776,8.61497,9.96001,11.45861,9.23688,-75.89422,-104.158,-90.78388,-80.83367,-44.69489
270.034,8.61498,9.9593,11.45668,9.23695,-75.62258,-103.811,-90.55791,-80.62018,-44.61463
272.212,8.615,9.95858,11.45473,9.23702,-75.35049,-103.464,-90.33139,-80.40622,-44.5341
274.39,8.61502,9.95786,11.45278,9.23709,-75.07796,-103.117,-90.10434,-80.19179,-44.45329
276.648,8.61504,9.95714,11.4508,9.23715,-74.80503,-102.77,-89.87678,-79.97692,-44.37223
278.826,8.61505,9.95641,11.44882,9.23722,-74.53169,-102.422,-89.64873,-79.76163,-44.2909
281.084,8.61507,9.95567,11.44682,9.23729,-74.25797,-102.075,-89.42018,-79.54591,-44.20932
283.262,8.61509,9.95493,11.44481,9.23736,-73.98389,-101.727,-89.19117,-79.32979,-44.12748
285.44,8.61511,9.95419,11.44278,9.23743,-73.70948,-101.38,-88.9617,-79.11327,-44.0454
287.698,8.61513,9.95343,11.44075,9.2375,-73.43474,-101.032,-88.73178,-78.89638,-43.96307
289.876,8.61514,9.95268,11.4387,9.23758,-73.1597,-100.685,-88.50144,-78.67912,-43.88051
292.053,8.61516,9.95192,11.43663,9.23765,-72.88437,-100.338,-88.27068,-78.46152,-43.79771
294.231,8.61518,9.95115,11.43455,9.23772,-72.60878,-99.99042,-88.03951,-78.24357,-43.71467
296.489,8.6152,9.95038,11.43247,9.23779,-72.33293,-99.64325,-87.80796,-78.0253,-43.63142
298.667,8.61522,9.9496,11.43036,9.23787,-72.05685,-99.29623,-87.57602,-77.80672,-43.54794
300.845,8.61524,9.94882,11.42825,9.23794,-71.78055,-98.94934,-87.34373,-77.58784,-43.46424
303.103,8.61526,9.94803,11.42612,9.23801,-71.50406,-98.60263,-87.11109,-77.36867,-43.38033
305.281,8.61528,9.94724,11.42398,9.23809,-71.22737,-98.25611,-86.87811,-77.14923,-43.29621
307.459,8.6153,9.94644,11.42183,9.23816,-70.95054,-97.90979,-86.64481,-76.92953,-43.21188
309.717,8.61532,9.94563,11.41966,9.23824,-70.67355,-97.56371,-86.41119,-76.70958,-43.12736
311.895,8.61533,9.94483,11.41748,9.23831,-70.39643,-97.21786,-86.17728,-76.48939,-43.04264
314.072,8.61535,9.94401,11.41529,9.23839,-70.11919,-96.87229,-85.94308,-76.26898,-42.95772
316.331,8.61537,9.94319,11.41309,9.23847,-69.84186,-96.527,-85.70861,-76.04836,-42.87261
318.508,8.6154,9.94237,11.41087,9.23855,-69.56445,-96.18201,-85.47388,-75.82755,-42.78732
320.686,8.61542,9.94154,11.40864,9.23862,-69.28697,-95.83735,-85.2389,-75.60654,-42.70185
322.944,8.61544,9.94071,11.4064,9.2387,-69.00944,-95.49303,-85.00369,-75.38536,-42.61621
325.122,8.61546,9.93987,11.40415,9.23878,-68.73188,-95.14906,-84.76825,-75.16402,-42.53039
327.3,8.61548,9.93903,11.40188,9.23886,-68.4543,-94.80547,-84.53261,-74.94253,-42.4444
329.558,8.6155,9.93818,11.3996,9.23894,-68.17672,-94.46228,-84.29676,-74.7209,-42.35825
331.736,8.61552,9.93732,11.39731,9.23902,-67.89915,-94.11949,-84.06073,-74.49914,-42.27194
333.914,8.61554,9.93647,11.39501,9.2391,-67.62162,-93.77713,-83.82453,-74.27727,-42.18547
336.172,8.61556,9.9356,11.3927,9.23918,-67.34412,-93.43521,-83.58816,-74.05529,-42.09885
338.35,8.61558,9.93473,11.39037,9.23926,-67.06668,-93.09374,-83.35164,-73.83322,-42.01209
340.527,8.6156,9.93386,11.38803,9.23934,-66.78932,-92.75275,-83.11499,-73.61107,-41.92517
342.786,8.61563,9.93298,11.38568,9.23943,-66.51204,-92.41225,-82.8782,-73.38885,-41.83812
344.963,8.61565,9.9321,11.38332,9.23951,-66.23487,-92.07226,-82.6413,-73.16657,-41.75093
347.141,8.61567,9.93121,11.38094,9.23959,-65.95781,-91.73278,-82.4043,-72.94425,-41.66361
349.399,8.61569,9.93031,11.37856,9.23968,-65.68088,-91.39384,-82.1672,-72.72188,-41.57616
351.577,8.61571,9.92942,11.37616,9.23976,-65.4041,-91.05545,-81.93003,-72.4995,-41.48858
353.755,8.61574,9.92851,11.37375,9.23985,-65.12748,-90.71763,-81.69278,-72.27709,-41.40089
356.013,8.61576,9.9276,11.37132,9.23993,-64.85103,-90.38038,-81.45547,-72.05468,-41.31307
358.191,8.61578,9.92669,11.36889,9.24002,-64.57476,-90.04372,-81.21811,-71.83228,-41.22515
360.369,8.61581,9.92577,11.36644,9.2401,-64.2987,-89.70766,-80.98072,-71.60989,-41.13711
362.627,8.61583,9.92485,11.36399,9.24019,-64.02284,-89.37222,-80.7433,-71.38754,-41.04897
364.805,8.61585,9.92392,11.36152,9.24028,-63.74721,-89.03742,-80.50586,-71.16522,-40.96072
366.982,8.61587,9.92299,11.35904,9.24036,-63.47183,-88.70325,-80.26842,-70.94295,-40.87238
369.241,8.6159,9.92205,11.35655,9.24045,-63.19669,-88.36975,-80.03098,-70.72073,-40.78394
371.418,8.61592,9.92111,11.35404,9.24054,-62.92181,-88.03691,-79.79356,-70.49858,-40.69541
373.596,8.61595,9.92016,11.35153,9.24063,-62.64722,-87.70475,-79.55616,-70.27652,-40.60679
375.854,8.61597,9.91921,11.349,9.24072,-62.37291,-87.37329,-79.3188,-70.05454,-40.51809
378.032,8.61599,9.91825,11.34646,9.24081,-62.0989,-87.04253,-79.08148,-69.83265,-40.42931
380.21,8.61602,9.91729,11.34391,9.2409,-61.8252,-86.71248,-78.84422,-69.61087,-40.34046
382.468,8.61604,9.91632,11.34135,9.24099,-61.55183,-86.38316,-78.60703,-69.38921,-40.25152
384.646,8.61607,9.91535,11.33878,9.24108,-61.2788,-86.05457,-78.36991,-69.16768,-40.16253
386.824,8.61609,9.91437,11.3362,9.24117,-61.00611,-85.72674,-78.13287,-68.94628,-40.07346
389.082,8.61612,9.91339,11.3336,9.24126,-60.73378,-85.39966,-77.89594,-68.72503,-39.98433
391.26,8.61614,9.9124,11.331,9.24135,-60.46183,-85.07335,-77.6591,-68.50393,-39.89514
393.437,8.61617,9.91141,11.32838,9.24145,-60.19025,-84.74782,-77.42238,-68.28299,-39.8059
395.696,8.61619,9.91042,11.32575,9.24154,-59.91907,-84.42308,-77.18578,-68.06222,-39.7166
397.873,8.61622,9.90942,11.32311,9.24163,-59.64829,-84.09913,-76.94932,-67.84163,-39.62726
400.051,8.61624,9.90841,11.32047,9.24173,-59.37793,-83.77599,-76.71299,-67.62124,-39.53787
402.309,8.61627,9.9074,11.31781,9.24182,-59.10799,-83.45367,-76.47682,-67.40103,-39.44844
404.487,8.61629,9.90639,11.31513,9.24192,-58.83848,-83.13217,-76.2408,-67.18104,-39.35897
406.665,8.61632,9.90537,11.31245,9.24201,-58.56942,-82.81151,-76.00495,-66.96126,-39.26947
408.923,8.61634,9.90434,11.30976,9.24211,-58.30081,-82.49168,-75.76928,-66.74171,-39.17993
411.101,8.61637,9.90331,11.30706,9.24221,-58.03267,-82.17271,-75.5338,-66.52239,-39.09036
413.279,8.6164,9.90228,11.30434,9.2423,-57.76501,-81.8546,-75.29851,-66.3033,-39.00077
415.456,8.61642,9.90124,11.30162,9.2424,-57.49782,-81.53735,-75.06342,-66.08446,-38.91116
417.715,8.61645,9.9002,11.29888,9.2425,-57.23113,-81.22098,-74.82854,-65.86588,-38.82152
419.892,8.61648,9.89915,11.29614,9.2426,-56.96495,-80.90549,-74.59388,-65.64756,-38.73188
422.07,8.6165,9.8981,11.29338,9.24269,-56.69928,-80.59089,-74.35945,-65.42952,-38.64221
424.328,8.61653,9.89704,11.29061,9.24279,-56.43412,-80.27718,-74.12525,-65.21175,-38.55254
426.506,8.61656,9.89598,11.28784,9.24289,-56.1695,-79.96438,-73.8913,-64.99427,-38.46287
428.764,8.61658,9.89492,11.28505,9.24299,-55.90542,-79.65248,-73.6576,-64.77708,-38.37318
430.942,8.61661,9.89384,11.28225,9.24309,-55.64188,-79.3415,-73.42415,-64.56019,-38.2835
433.12,8.61664,9.89277,11.27944,9.24319,-55.3789,-79.03145,-73.19098,-64.34362,-38.19382
435.378,8.61667,9.89169,11.27663,9.24329,-55.11648,-78.72232,-72.95807,-64.12735,-38.10415
437.556,8.61669,9.89061,11.2738,9.2434,-54.85464,-78.41413,-72.72545,-63.91141,-38.01449
439.733,8.61672,9.88952,11.27096,9.2435,-54.59337,-78.10688,-72.49312,-63.69581,-37.92483
441.992,8.61675,9.88842,11.26811,9.2436,-54.3327,-77.80057,-72.26108,-63.48053,-37.83519
444.17,8.61678,9.88733,11.26525,9.2437,-54.07261,-77.49522,-72.02935,-63.26561,-37.74557
446.347,8.61681,9.88622,11.26238,9.24381,-53.81314,-77.19082,-71.79793,-63.05103,-37.65597
448.525,8.61683,9.88512,11.25951,9.24391,-53.55427,-76.88739,-71.56683,-62.83681,-37.56639
450.783,8.61686,9.88401,11.25662,9.24402,-53.29602,-76.58492,-71.33604,-62.62295,-37.47684
452.961,8.61689,9.88289,11.25372,9.24412,-53.0384,-76.28343,-71.1056,-62.40946,-37.38732
455.139,8.61692,9.88177,11.25081,9.24422,-52.78141,-75.98291,-70.87548,-62.19635,-37.29783
457.397,8.61695,9.88065,11.24789,9.24433,-52.52506,-75.68338,-70.64571,-61.98362,-37.20837
459.575,8.61698,9.87952,11.24497,9.24444,-52.26936,-75.38483,-70.4163,-61.77128,-37.11895
461.833,8.61701,9.87838,11.24203,9.24454,-52.01431,-75.08727,-70.18724,-61.55933,-37.02958
464.011,8.61704,9.87724,11.23908,9.24465,-51.75991,-74.7907,-69.95855,-61.34779,-36.94024
466.188,8.61707,9.8761,11.23613,9.24476,-51.50619,-74.56893,-69.73023,-61.13665,-36.85095
468.366,8.6171,9.87496,11.23316,9.24486,-51.25313,-74.34772,-69.50228,-61.03124,-36.7617
470.625,8.61713,9.8738,11.23019,9.24497,-51.00076,-74.05366,-69.27472,-60.82072,-36.67251
472.802,8.61716,9.87265,11.2272,9.24508,-50.74907,-73.7606,-69.04754,-60.61063,-36.58337
474.98,8.61719,9.87149,11.22421,9.24519,-50.49807,-73.54145,-68.87741,-60.40096,-36.49429
477.238,8.61722,9.87032,11.2212,9.2453,-50.24777,-73.32291,-68.70752,-60.29628,-36.40526
479.416,8.61725,9.86916,11.21819,9.24541,-49.99816,-73.03236,-68.48132,-60.08727,-36.31629
481.594,8.61728,9.86798,11.21517,9.24552,-49.74925,-72.74288,-68.25558,-59.87869,-36.22739
483.852,8.61731,9.86681,11.21214,9.24563,-49.50109,-72.52639,-68.0865,-59.67055,-36.13856
486.03,8.61734,9.86562,11.2091,9.24574,-49.3154,-72.31053,-67.9177,-59.56666,-36.09416
488.207,8.61737,9.86444,11.20605,9.24585,-49.13017,-72.02354,-67.69295,-59.3592,-36.00543
490.466,8.6174,9.86325,11.20299,9.24596,-48.88375,-71.73766,-67.46869,-59.15221,-35.91677
492.643,8.61743,9.86205,11.19992,9.24607,-48.63814,-71.52386,-67.30072,-58.94568,-35.82818
494.821,8.61746,9.86086,11.19685,9.24619,-48.45435,-71.31072,-67.13307,-58.84258,-35.78392
497.08,8.6175,9.85965,11.19376,9.2463,-48.27106,-71.02732,-66.90982,-58.63676,-35.69545
499.257,8.61753,9.85845,11.19067,9.24641,-48.02721,-70.74507,-66.68711,-58.4314,-35.60705
501.435,8.61756,9.85723,11.18757,9.24653,-47.78421,-70.53397,-66.5203,-58.22653,-35.51875
503.693,8.61759,9.85602,11.18446,9.24664,-47.60237,-70.32357,-66.35383,-58.12428,-35.47462
505.871,8.61762,9.8548,11.18134,9.24676,-47.42105,-70.04392,-66.13227,-57.92014,-35.38644
508.049,8.61766,9.85357,11.17821,9.24687,-47.17994,-69.76521,-65.91107,-57.71649,-35.29835
510.307,8.61769,9.85235,11.17507,9.24699,-46.9395,-69.55695,-65.74556,-57.51333,-35.21035
512.485,8.61772,9.85111,11.17192,9.2471,-46.75975,-69.34918,-65.58023,-57.41194,-35.16638
514.662,8.61775,9.84988,11.16877,9.24722,-46.58034,-69.07317,-65.36029,-57.20954,-35.07852
516.921,8.61779,9.84864,11.16561,9.24733,-46.3419,-68.79813,-65.14078,-57.00764,-34.99075
519.098,8.61782,9.84739,11.16244,9.24745,-46.10418,-68.5926,-64.9765,-56.80626,-34.90308
521.276,8.61785,9.84614,11.15926,9.24757,-45.92645,-68.3876,-64.81246,-56.70576,-34.85928
523.535,8.61789,9.84489,11.15607,9.24769,-45.7491,-68.11526,-64.59421,-56.50515,-34.77177
525.712,8.61792,9.84363,11.15287,9.2478,-45.51339,-67.84391,-64.37642,-56.30506,-34.68435
527.89,8.61795,9.84237,11.14967,9.24792,-45.27842,-67.64113,-64.21343,-56.10549,-34.59704
530.148,8.61799,9.84111,11.14645,9.24804,-45.10275,-67.43891,-64.0507,-56.00591,-34.55343
532.326,8.61802,9.83984,11.14323,9.24816,-44.9275,-67.17023,-63.83419,-55.80714,-34.46628
534.504,8.61805,9.83856,11.14001,9.24828,-44.69454,-66.90259,-63.61819,-55.6089,-34.37924
536.762,8.61809,9.83729,11.13677,9.24834,-44.46238,-66.70256,-63.45652,-55.4112,-34.29231
538.94,8.61812,9.83601,11.13352,9.24846,-44.2888,-66.50312,-63.29515,-55.31255,-34.24889
541.117,8.61816,9.83472,11.13027,9.24858,-44.11566,-66.23812,-63.08043,-55.11567,-34.16214
543.376,8.61819,9.83343,11.12783,9.2487,-43.88552,-65.9742,-62.86625,-54.91933,-34.0755
545.553,8.61823,9.83214,11.12538,9.24876,-43.6562,-65.77692,-62.70594,-54.72354,-33.98899
547.731,8.61826,9.83084,11.12211,9.24889,-43.48472,-65.58028,-62.54597,-54.62586,-33.94577
549.989,8.6183,9.83019,11.11883,9.24901,-43.31374,-65.31895,-62.33308,-54.4309,-33.85944
552.167,8.61833,9.82889,11.11636,9.24913,-43.08643,-65.05875,-62.12078,-54.2365,-33.77323
554.345,8.61837,9.82758,11.11389,9.24919,-42.85999,-64.86423,-61.96186,-54.04266,-33.68714
556.603,8.6184,9.82627,11.11059,9.24931,-42.69065,-64.67037,-61.8033,-53.94595,-33.64414
558.781,8.61844,9.82561,11.10728,9.24944,-42.52183,-64.41273,-61.5923,-53.75296,-33.55825
560.959,8.61847,9.8243,11.1048,9.24956,-42.29739,-64.15624,-61.38192,-53.56054,-33.47249
563.217,8.61851,9.82298,11.10231,9.24962,-42.07386,-63.96447,-61.22442,-53.36868,-33.38685
565.395,8.61854,9.82165,11.09898,9.24975,-41.90668,-63.7734,-61.06732,-53.27297,-33.34408
567.008,8.61857,9.82099,11.09565,9.24987,-41.74005,-63.51945,-60.85823,-53.08198,-33.25865
568.702,8.6186,9.81966,11.09315,9.25,-41.51851,-63.26666,-60.64981,-52.89158,-33.17336
570.879,8.61863,9.81832,11.09064,9.25006,-41.2979,-63.07777,-60.49386,-52.70174,-33.0882
573.138,8.61867,9.81698,11.08729,9.25019,-41.13301,-62.88936,-60.33814,-52.60705,-33.04567
574.751,8.6187,9.81631,11.08393,9.25031,-40.96849,-62.63919,-60.13111,-52.41809,-32.96072
576.444,8.61873,9.81497,11.0814,9.25044,-40.74996,-62.38999,-59.92458,-52.22973,-32.87592
578.622,8.61876,9.81362,11.07888,9.2505,-40.53221,-62.20384,-59.77011,-52.04195,-32.79125
580.8,8.6188,9.81227,11.0755,9.25063,-40.3695,-62.01822,-59.6159,-51.94828,-32.74897
582.494,8.61883,9.81159,11.07212,9.25076,-40.20721,-61.77171,-59.41086,-51.76139,-32.66453
584.107,8.61885,9.81024,11.06957,9.25088,-39.99163,-61.5262,-59.20636,-51.5751,-32.58023
586.284,8.61889,9.80888,11.06703,9.25095,-39.77684,-61.34279,-59.05339,-51.3894,-32.49608
588.543,8.61893,9.80751,11.06363,9.25108,-39.61634,-61.15993,-58.90072,-51.29677,-32.45406
590.156,8.61896,9.80683,11.06022,9.25121,-39.45629,-60.91707,-58.6977,-51.11197,-32.37014
591.85,8.61899,9.80546,11.05766,9.25133,-39.24366,-60.67524,-58.49525,-50.92778,-32.28637
594.027,8.61902,9.80408,11.05509,9.2514,-39.03186,-60.49456,-58.34381,-50.74419,-32.20275
596.286,8.61906,9.80271,11.05167,9.25153,-38.87358,-60.31445,-58.1927,-50.65263,-32.161
597.899,8.61909,9.80202,11.04824,9.25166,-38.71577,-60.07523,-57.99173,-50.46995,-32.07762
599.512,8.61912,9.80063,11.04566,9.25179,-38.50611,-59.83705,-57.79136,-50.28788,-31.99439
601.77,8.61916,9.79925,11.04308,9.25185,-38.29731,-59.65909,-57.64147,-50.10641,-31.91132
603.948,8.61919,9.79785,11.03963,9.25199,-38.14126,-59.48173,-57.49193,-50.01592,-31.86985
605.642,8.61922,9.79716,11.03617,9.25212,-37.98571,-59.24613,-57.29304,-49.83537,-31.78702
607.255,8.61925,9.79576,11.03358,9.25225,-37.77903,-59.01158,-57.09478,-49.65545,-31.70436
609.433,8.61929,9.79436,11.03098,9.25231,-37.57323,-58.83632,-56.94646,-49.47614,-31.62186
611.691,8.61933,9.79296,11.02751,9.25245,-37.41941,-58.66169,-56.79851,-49.38672,-31.58067
613.304,8.61936,9.79226,11.02403,9.25258,-37.26612,-58.42969,-56.60173,-49.20834,-31.49841
614.998,8.61939,9.79085,11.02142,9.25271,-37.06243,-58.19876,-56.4056,-49.03058,-31.41633
617.175,8.61943,9.78944,11.0188,9.25278,-36.85964,-58.02619,-56.25886,-48.85344,-31.33441
619.434,8.61947,9.78802,11.01531,9.25291,-36.70807,-57.85426,-56.11252,-48.76511,-31.29351
621.047,8.6195,9.78731,11.01181,9.25305,-36.55703,-57.62583,-55.91787,-48.5889,-31.21185
622.66,8.61953,9.78589,11.00918,9.25318,-36.35633,-57.39852,-55.7239,-48.41333,-31.13035
624.918,8.61957,9.78447,11.00654,9.25325,-36.15657,-57.22861,-55.57875,-48.23837,-31.04903
627.096,8.61961,9.78304,11.00303,9.25338,-36.00723,-57.05938,-55.43404,-48.15113,-31.00843
628.79,8.61964,9.78232,10.99951,9.25352,-35.85846,-56.8346,-55.24161,-47.97712,-30.92737
630.403,8.61967,9.78089,10.99686,9.25365,-35.66084,-56.61075,-55.04973,-47.80374,-30.84649
632.661,8.61971,9.77945,10.99421,9.25372,-35.464,-56.44359,-54.90628,-47.63099,-30.76578
634.839,8.61975,9.77801,10.99068,9.25386,-35.31699,-56.27693,-54.76312,-47.54485,-30.72549
636.452,8.61978,9.77729,10.98714,9.25399,-35.1704,-56.05568,-54.57286,-47.37304,-30.64505
638.146,8.61981,9.77585,10.98447,9.25413,-34.97577,-55.83537,-54.38316,-47.20186,-30.56478
640.324,8.61985,9.7744,10.98181,9.2542,-34.78195,-55.67084,-54.24134,-47.03132,-30.4847
642.501,8.61989,9.77295,10.97825,9.25433,-34.63718,-55.50683,-54.09983,-46.94629,-30.44472
644.195,8.61992,9.77222,10.97469,9.25447,-34.49286,-55.28908,-53.91174,-46.7767,-30.36491
645.808,8.61995,9.77076,10.97202,9.25461,-34.30121,-55.07229,-53.72425,-46.60775,-30.28528
648.067,8.61999,9.7693,10.96934,9.25468,-34.1104,-54.91037,-53.58407,-46.43943,-30.20583
650.244,8.62003,9.76784,10.96576,9.25482,-33.96787,-54.53471,-53.25832,-46.35551,-30.16618
651.938,8.62006,9.7671,10.96218,9.25495,-33.63714,-53.79245,-52.61262,-45.8139,-29.90955
653.551,8.62009,9.76563,10.95949,9.25509,-32.98354,-53.06219,-51.97468,-45.23816,-29.6354
655.729,8.62014,9.76416,10.95679,9.25516,-32.34036,-52.34383,-51.34454,-44.67026,-29.36359
657.987,8.62018,9.76269,10.9532,9.2553,-31.70757,-51.63724,-50.72221,-44.1102,-29.09415
659.6,8.62021,9.76195,10.9496,9.25544,-31.08514,-50.94239,-50.10778,-43.55806,-28.82716
661.294,8.62024,9.76047,10.94689,9.25558,-30.47309,-50.25897,-49.50111,-43.01369,-28.56256
663.472,8.62028,9.75898,10.94418,9.25565,-29.87119,-49.58694,-48.90229,-42.47717,-28.30043
665.649,8.62032,9.7575,10.94057,9.25611,-29.27946,-48.92619,-48.31132,-41.94847,-28.04078
667.343,8.62036,9.75675,10.93695,9.25661,-28.69786,-48.27657,-47.72817,-41.42758,-27.78365
668.956,8.62039,9.75526,10.93423,9.25711,-28.12628,-47.63794,-47.15286,-40.91449,-27.52905
671.215,8.62043,9.75376,10.93151,9.25761,-27.56467,-47.01019,-46.58536,-40.40915,-27.277
673.392,8.62047,9.75226,10.92788,9.25812,-27.01294,-46.39316,-46.02565,-39.91155,-27.02753
675.086,8.62051,9.75151,10.92424,9.25863,-26.47101,-45.78679,-45.4738,-39.42172,-26.78067
676.699,8.62054,9.75001,10.92151,9.25915,-25.93885,-45.1908,-44.92961,-38.93948,-26.53638
678.877,8.62058,9.7485,10.91512,9.25967,-25.41624,-44.60512,-44.39314,-38.46487,-26.2947
681.135,8.62062,9.74699,10.9023,9.26019,-24.90316,-44.02961,-43.86436,-37.99783,-26.05565
682.748,8.62066,9.74624,10.88943,9.26072,-24.3995,-43.46413,-43.34322,-37.53833,-25.81922
684.442,8.62069,9.7413,10.8765,9.26125,-23.90517,-42.90855,-42.82969,-37.0863,-25.58544
686.62,8.62073,9.73595,10.86351,9.26178,-23.42006,-42.36271,-42.32373,-36.6417,-25.3543
688.798,8.62078,9.73057,10.85047,9.26232,-22.94407,-41.82656,-41.82535,-36.20448,-25.12581
690.491,8.62081,9.72514,10.83738,9.26286,-22.47716,-41.29981,-41.33438,-35.77462,-24.90001
694.363,8.62089,9.71968,10.82424,9.2634,-22.0191,-40.78239,-40.85083,-35.35196,-24.67682
702.025,8.62104,9.71419,10.81106,9.26394,-21.56984,-40.27417,-40.37465,-34.93648,-24.45629
709.768,8.6212,9.70865,10.79783,9.26449,-21.12926,-39.775,-39.90579,-34.52813,-24.23842
717.511,8.62136,9.70309,10.78455,9.26504,-20.69727,-39.28476,-39.44419,-34.12685,-24.02319
725.173,8.62152,9.69749,10.77124,9.2656,-20.27374,-38.8033,-38.98979,-33.73255,-23.81061
732.916,8.62168,9.69185,10.75788,9.26615,-19.85856,-38.33049,-38.54253,-33.34518,-23.60068
740.659,8.62184,9.68619,10.74449,9.26671,-19.45163,-37.86626,-38.10241,-32.96471,-23.39341
748.321,8.62201,9.68049,10.73106,9.26727,-19.05287,-37.41035,-37.66925,-32.59096,-23.18875
756.064,8.62218,9.67476,10.7176,9.26784,-18.66207,-36.96269,-37.24305,-32.22392,-22.98671
763.807,8.62235,9.669,10.70411,9.2684,-18.27917,-36.52315,-36.82373,-31.86352,-22.78728
771.469,8.62252,9.66321,10.69058,9.26897,-17.90405,-36.09161,-36.41123,-31.50967,-22.59047
779.212,8.62269,9.65739,10.67703,9.26954,-17.5366,-35.66792,-36.00549,-31.1623,-22.39625
786.875,8.62286,9.65154,10.66345,9.27011,-17.1767,-35.25198,-35.60644,-30.82133,-22.20461
794.617,8.62304,9.64566,10.64984,9.27069,-16.82424,-34.8437,-35.21406,-30.48669,-22.01555
802.36,8.62322,9.63975,10.63621,9.27126,-16.47914,-34.44285,-34.82816,-30.15833,-21.82908
810.023,8.6234,9.63382,10.62256,9.27184,-16.14121,-34.04938,-34.44875,-29.83611,-21.64513
817.766,8.62358,9.62786,10.60889,9.27242,-15.81038,-33.66315,-34.07574,-29.51997,-21.46372
825.508,8.62376,9.62187,10.5952,9.273,-15.48652,-33.28404,-33.70907,-29.20984,-21.28484
833.171,8.62395,9.61586,10.58149,9.27358,-15.16954,-32.91195,-33.34866,-28.90564,-21.10846
840.914,8.62413,9.60982,10.56776,9.27416,-14.85932,-32.54674,-32.99444,-28.6073,-20.93457
848.657,8.62432,9.60376,10.55403,9.27475,-14.55574,-32.18836,-32.64638,-28.31472,-20.76316
856.319,8.62451,9.59768,10.54028,9.27533,-14.25873,-31.8366,-32.30431,-28.02787,-20.59423
864.062,8.6247,9.59157,10.52652,9.27592,-13.96812,-31.49139,-31.96821,-27.7466,-20.42772
871.805,8.62489,9.58544,10.51275,9.2765,-13.68382,-31.15262,-31.63802,-27.47085,-20.26363
879.467,8.62509,9.57929,10.49897,9.27709,-13.40573,-30.82019,-31.31364,-27.20056,-20.10196
887.21,8.62528,9.57311,10.48518,9.27768,-13.13374,-30.49398,-30.99501,-26.93564,-19.94267
894.953,8.62548,9.56692,10.47139,9.27827,-12.86775,-30.1739,-30.68206,-26.676,-19.78576
902.615,8.62568,9.5607,10.4576,9.27944,-12.60765,-29.85983,-30.37471,-26.42158,-19.6312
910.358,8.62588,9.55447,10.44381,9.28033,-12.35334,-29.55171,-30.07293,-26.17233,-19.479
918.101,8.62609,9.54822,10.43001,9.2815,-12.10474,-29.24937,-29.77656,-25.92809,-19.32909
925.763,8.62629,9.54195,10.41622,9.28326,-11.8617,-28.95275,-29.48558,-25.68884,-19.18147
933.506,8.6265,9.53566,10.40242,9.28414,-11.62414,-28.66174,-29.19991,-25.45448,-19.03613
941.249,8.62671,9.52935,10.38863,9.28472,-11.39196,-28.37625,-28.91947,-25.22494,-18.89305
948.911,8.62692,9.52303,10.37485,9.2853,-11.16507,-28.09618,-28.6442,-25.00015,-18.7522
956.654,8.62713,9.51669,10.3473,9.28588,-10.94336,-27.82145,-28.37402,-24.78002,-18.61357
964.317,8.62734,9.51033,10.17628,9.28646,-10.72674,-27.55199,-28.10889,-24.56449,-18.47713
972.059,8.62756,9.50397,10.16273,9.28703,-10.51515,-27.28764,-27.84869,-24.3535,-18.34289
979.802,8.62778,9.40377,10.1492,9.28761,-10.30844,-27.02835,-27.59336,-24.14693,-18.21077
987.465,8.62799,9.39397,10.13569,9.28818,-10.10653,-26.77404,-27.34284,-23.94472,-18.08079
995.208,8.62821,9.38743,10.12221,9.28875,-9.90934,-26.52461,-27.09706,-23.7468,-17.95292
1002.95,8.62844,9.38088,10.10876,9.28931,-9.71679,-26.27998,-26.85594,-23.55311,-17.82714
1134.1,8.63247,9.37434,10.09533,9.28988,-9.52878,-26.04007,-26.61943,-23.36357,-17.70343
1157.24,8.63324,9.36778,10.08193,9.29044,-9.34522,-25.80479,-26.38744,-23.1781,-17.58176
1176.52,8.63388,9.36123,10.06856,9.29099,-9.16603,-25.57409,-26.15996,-22.99666,-17.46214
1184.26,8.63415,9.35467,10.05522,9.29155,-8.99114,-25.34784,-25.93683,-22.81914,-17.3445
1191.93,8.63441,9.34811,10.04191,9.2921,-8.82043,-25.12598,-25.71804,-22.64548,-17.22884
1199.67,8.63468,9.34155,10.02864,9.29264,-8.65385,-24.90845,-25.5035,-22.47562,-17.11514
1207.41,8.63494,9.33499,10.01539,9.29319,-8.49129,-24.69515,-25.29317,-22.30949,-17.00339
1215.07,8.63521,9.32843,10.00218,9.29372,-8.3327,-24.48602,-25.08696,-22.14702,-16.89354
1222.82,8.63548,9.32187,9.98901,9.29426,-8.17798,-24.28099,-24.88482,-21.98815,-16.7856
1230.48,8.63575,9.31531,9.97587,9.29478,-8.02707,-24.08,-24.68671,-21.83281,-16.67952
1238.22,8.63603,9.30875,9.96276,9.29531,-7.8799,-23.88294,-24.49251,-21.68096,-16.57532
1245.97,8.6363,9.30219,9.94969,9.29583,-7.73636,-23.68976,-24.30219,-21.53248,-16.47293
1253.63,8.63658,9.29563,9.93666,9.29634,-7.59639,-23.50039,-24.11568,-21.38735,-16.37234
1261.37,8.63686,9.28908,9.92367,9.29685,-7.45994,-23.31477,-23.93292,-21.24549,-16.27355
1269.11,8.63714,9.28253,9.91072,9.29735,-7.32691,-23.13283,-23.75385,-21.10684,-16.17652
1276.78,8.63742,9.27598,9.8978,9.29784,-7.19725,-22.9545,-23.57841,-20.97134,-16.08124
1284.52,8.63771,9.26944,9.88492,9.29833,-7.07088,-22.77972,-23.40654,-20.83894,-15.98768
1292.26,8.63799,9.2629,9.87209,9.29881,-6.94774,-22.60845,-23.2382,-20.70959,-15.89583
1299.92,8.63828,9.25636,9.85929,9.29929,-6.82778,-22.44058,-23.0733,-20.58319,-15.80565
1307.67,8.63857,9.24983,9.84654,9.29976,-6.71089,-22.27608,-22.91179,-20.45971,-15.71713
1315.41,8.63886,9.24331,9.83383,9.30022,-6.59704,-22.11487,-22.75362,-20.33908,-15.63025
1323.07,8.63916,9.23679,9.82117,9.30067,-6.48615,-21.95691,-22.59872,-20.22126,-15.54499
1330.81,8.63945,9.23028,9.80854,9.30111,-6.37817,-21.80214,-22.44706,-20.10619,-15.46132
1338.56,8.63975,9.22378,9.79596,9.30155,-6.27304,-21.65049,-22.29856,-19.99381,-15.37923
1346.22,8.64004,9.21728,9.78342,9.30198,-6.17068,-21.50194,-22.1532,-19.88406,-15.2987
1353.96,8.64034,9.21079,9.77093,9.30239,-6.07107,-21.35638,-22.01088,-19.77692,-15.21971
1361.71,8.64064,9.20431,9.75849,9.3028,-5.97412,-21.21378,-21.87156,-19.67229,-15.14222
1369.37,8.64095,9.19784,9.74609,9.3032,-5.87977,-21.0741,-21.73521,-19.57014,-15.06623
1377.11,8.64125,9.19138,9.73373,9.30359,-5.78798,-20.93727,-21.60175,-19.47042,-14.99171
1384.85,8.64156,9.18492,9.72143,9.30397,-5.69869,-20.80325,-21.47115,-19.37308,-14.91865
1392.52,8.64187,9.17848,9.70917,9.30434,-5.61186,-20.67198,-21.34334,-19.27807,-14.84702
1400.26,8.64218,9.17204,9.69695,9.3047,-5.52741,-20.54341,-21.21829,-19.18534,-14.7768
1407.92,8.64249,9.16562,9.68479,9.30504,-5.44531,-20.41752,-21.09595,-19.09486,-14.70799
1415.66,8.6428,9.15921,9.67267,9.30538,-5.36551,-20.29422,-20.97625,-19.00655,-14.64054
1423.41,8.64311,9.15281,9.66061,9.3057,-5.28795,-20.17347,-20.85916,-18.92038,-14.57445
1431.07,8.64343,9.14642,9.64859,9.30601,-5.21258,-20.05524,-20.74462,-18.8363,-14.5097
1438.81,8.64375,9.14004,9.63662,9.30631,-5.13935,-19.93947,-20.63259,-18.75427,-14.44626
1446.56,8.64407,9.13368,9.6247,9.3066,-5.06823,-19.77035,-20.46915,-18.63498,-14.35353
1454.22,8.64439,9.12732,9.61283,9.30687,-4.96538,-19.66055,-20.36319,-18.55788,-14.2933
1465.83,8.64488,9.11782,9.59512,9.30725,-4.8993,-19.55308,-20.2596,-18.48267,-14.23432
1473.58,8.6452,9.1115,9.58338,9.30749,-4.83518,-19.44786,-20.1583,-18.40934,-14.17659
1481.24,8.64553,9.1052,9.57169,9.30771,-4.77294,-19.2942,-20.01057,-18.3027,-14.09224
1488.98,8.64586,9.09891,9.56005,9.30792,-4.68306,-19.19447,-19.91485,-18.23381,-14.03749
1500.51,8.64636,9.0895,9.54269,9.3082,-4.62539,-19.04884,-19.77529,-18.16664,-13.98392
1508.26,8.64669,9.08324,9.53118,9.30837,-4.54216,-18.95435,-19.68487,-18.069,-13.90571
1516,8.64702,9.07701,9.51972,9.30852,-4.48881,-18.86188,-19.59651,-18.00594,-13.85498
1527.53,8.64753,9.06768,9.50263,9.30872,-4.43711,-18.72691,-19.46774,-17.91431,-13.78096
1535.28,8.64787,9.06148,9.4913,9.30882,-4.36259,-18.63934,-19.38434,-17.85513,-13.73296
1546.81,8.64838,9.05221,9.47442,9.30895,-4.31487,-18.51153,-19.26281,-17.76915,-13.66296
1554.55,8.64872,9.04606,9.46322,9.30901,-4.24615,-18.42864,-19.18413,-17.71363,-13.61759
1566.09,8.64924,9.03686,9.44653,9.30907,-4.20219,-18.30767,-19.0695,-17.63298,-13.55145
1573.83,8.64959,9.03074,9.43547,9.30908,-4.13895,-18.19067,-18.95885,-17.58091,-13.50861
1585.36,8.65012,9.02161,9.41898,9.30906,-4.07885,-18.1148,-18.88723,-17.50528,-13.44618
1593.11,8.65047,9.01554,9.40806,9.30903,-4.04046,-18.00411,-18.78294,-17.43251,-13.38591
1604.72,8.651,9.00648,9.39177,9.30893,-3.98534,-17.89708,-18.6823,-17.38554,-13.34689
1616.25,8.65153,8.99745,9.37561,9.30878,-3.93307,-17.7936,-18.5852,-17.31731,-13.29008
1624,8.65189,8.99146,9.3649,9.30865,-3.88356,-17.72653,-18.52238,-17.25168,-13.23528
1635.53,8.65243,8.98251,9.34895,9.30841,-3.85203,-17.62874,-18.43096,-17.18854,-13.18244
1647.15,8.65298,8.97361,9.33311,9.30812,-3.8069,-17.53422,-18.34277,-17.12781,-13.13151
1658.68,8.65353,8.96475,9.3174,9.30777,-3.76426,-17.44288,-18.25774,-17.06938,-13.08244
1670.29,8.65408,8.95593,9.30181,9.30736,-3.72404,-17.35463,-18.17575,-17.03167,-13.05073
1681.83,8.65463,8.94717,9.28634,9.30689,-3.68615,-17.26937,-18.09671,-16.97689,-13.00465
1689.57,8.65501,8.94135,9.2761,9.30654,-3.65049,-17.18702,-18.02053,-16.92419,-12.96029
1701.1,8.65557,8.93267,9.26084,9.30596,-3.61701,-17.10747,-17.94709,-16.85702,-12.90376
1712.72,8.65614,8.92403,9.24571,9.30532,-3.5856,-17.03066,-17.87632,-16.80884,-12.86326
1728.12,8.6569,8.9126,9.22572,9.30436,-3.5562,-16.95649,-17.80811,-16.76248,-12.82433
1739.74,8.65747,8.90408,9.21088,9.30355,-3.52873,-16.86157,-17.72102,-16.71785,-12.78693
1751.27,8.65805,8.89561,9.19616,9.30267,-3.49498,-16.79326,-17.65848,-16.67488,-12.75102
1762.81,8.65863,8.8872,9.18156,9.30172,-3.47175,-16.72733,-17.59823,-16.63351,-12.71654
1774.42,8.65922,8.87884,9.16709,9.30068,-3.45022,-16.643,-17.5213,-16.58069,-12.67275
1785.95,8.65981,8.87053,9.15274,9.29957,-3.42404,-16.58233,-17.46606,-16.54276,-12.64147
1801.44,8.6606,8.85954,9.13381,9.29796,-3.40623,-16.5238,-17.41285,-16.49431,-12.6018
1812.97,8.6612,8.85135,9.11975,9.29665,-3.38992,-16.44896,-17.34491,-16.45948,-12.5735
1828.46,8.66201,8.84053,9.10119,9.29477,-3.3704,-16.39514,-17.29612,-16.41494,-12.53765
1839.99,8.66261,8.83248,9.08742,9.29325,-3.35735,-16.32634,-17.23383,-16.38289,-12.51212
1855.4,8.66343,8.82183,9.06925,9.29108,-3.34199,-16.26079,-17.17455,-16.34185,-12.47982
1867.01,8.66405,8.81391,9.05576,9.28934,-3.32883,-16.21367,-17.13196,-16.30263,-12.44943
1882.42,8.66487,8.80343,9.03796,9.28686,-3.32033,-16.15345,-17.07756,-16.27434,-12.42783
1897.82,8.66571,8.79306,9.02038,9.2842,-3.31075,-16.09608,-17.02575,-16.23803,-12.40057
1909.44,8.66634,8.78535,9.00733,9.28208,-3.30306,-16.04143,-16.97638,-16.20321,-12.37499
1924.84,8.66718,8.77516,8.99013,9.27908,-3.29717,-15.98937,-16.92933,-16.1698,-12.351
1940.25,8.66804,8.76508,8.97313,9.27589,-3.29296,-15.93978,-16.88445,-16.13767,-12.32854
1955.73,8.6689,8.7551,8.95634,9.27248,-3.29035,-15.89252,-16.84162,-16.10674,-12.30752
1971.14,8.66976,8.74523,8.93976,9.26886,-3.28924,-15.8475,-16.80072,-16.07692,-12.28788
1986.54,8.67063,8.73546,8.92339,9.26502,-3.28954,-15.80459,-16.76164,-16.0481,-12.26953
2002.03,8.67151,8.7258,8.90723,9.26095,-3.29118,-15.75376,-16.71516,-16.02021,-12.25242
2017.43,8.6724,8.71625,8.89128,9.25665,-3.29499,-15.71521,-16.67975,-15.98653,-12.23266
2032.84,8.67329,8.70681,8.87552,9.25211,-3.29934,-15.67844,-16.6458,-15.96043,-12.21808
2052.12,8.67442,8.69515,8.85612,9.24608,-3.30477,-15.63481,-16.60526,-15.92875,-12.20127
2067.6,8.67532,8.68596,8.84082,9.24097,-3.31299,-15.60167,-16.57424,-15.90407,-12.18889
2086.88,8.67647,8.67461,8.82198,9.23421,-3.32062,-15.56229,-16.53707,-15.87395,-12.17466
2102.28,8.67739,8.66566,8.80713,9.2285,-3.33137,-15.52504,-16.50153,-15.84452,-12.16169
2121.56,8.67855,8.65463,8.78884,9.22097,-3.34337,-15.48974,-16.46746,-15.8214,-12.15215
2140.84,8.67972,8.64376,8.77085,9.21299,-3.35651,-15.45625,-16.4347,-15.79294,-12.14119
2156.32,8.68067,8.6352,8.75668,9.20628,-3.37068,-15.42441,-16.40312,-15.76488,-12.13121
2175.6,8.68186,8.62464,8.73924,9.19747,-3.38579,-15.39409,-16.37256,-15.73711,-12.1221
2194.88,8.68306,8.61426,8.72209,9.18817,-3.40173,-15.36514,-16.34292,-15.70954,-12.11378
2214.15,8.68427,8.60406,8.70523,9.17839,-3.41844,-15.33744,-16.31405,-15.68211,-12.10616
2233.43,8.68549,8.59402,8.68866,9.1681,-3.43582,-15.31087,-16.28585,-15.64925,-12.09781
2252.71,8.68672,8.58416,8.67238,9.1573,-3.45379,-15.28031,-16.25273,-15.62183,-12.09142
2275.85,8.68821,8.57255,8.65322,9.14364,-3.47605,-15.25581,-16.22561,-15.58878,-12.08431
2295.13,8.68946,8.56306,8.63756,9.13168,-3.49509,-15.22742,-16.1935,-15.56105,-12.07878
2318.28,8.69098,8.55191,8.61912,9.11661,-3.51843,-15.19997,-16.16173,-15.52747,-12.07249
2337.64,8.69226,8.5428,8.60406,9.10345,-3.54221,-15.17329,-16.13014,-15.49346,-12.06648
2360.7,8.6938,8.53209,8.58634,9.08692,-3.56634,-15.14724,-16.0986,-15.45895,-12.06064
2383.85,8.69536,8.52163,8.569,9.06959,-3.59072,-15.12167,-16.06699,-15.42387,-12.05486
2407,8.69693,8.5114,8.55204,9.05145,-3.61528,-15.09645,-16.03519,-15.38815,-12.04905
2430.15,8.69852,8.50142,8.53545,9.0325,-3.63994,-15.07144,-16.0031,-15.35174,-12.04311
2453.3,8.70012,8.49168,8.51922,9.01274,-3.66463,-15.0424,-15.96517,-15.3083,-12.03591
2476.44,8.70173,8.48217,8.50335,8.99218,-3.69337,-15.01333,-15.92658,-15.27021,-12.02941
2503.46,8.70364,8.47138,8.48528,8.96719,-3.72197,-14.98827,-15.89288,-15.2247,-12.02135
2526.61,8.70528,8.46238,8.47017,8.94492,-3.7463,-14.95873,-15.85275,-15.17799,-12.01266
2553.63,8.70722,8.45218,8.45297,8.91797,-3.7744,-14.92875,-15.81162,-15.13005,-12.00324
2580.65,8.70918,8.44229,8.43623,8.89002,-3.80213,-14.8982,-15.76943,-15.08082,-11.99299
2607.59,8.71116,8.4327,8.41994,8.86111,-3.82941,-14.86245,-15.71981,-15.03029,-11.98185
2634.61,8.71315,8.42343,8.40408,8.83128,-3.85997,-14.83032,-15.67508,-14.97843,-11.96972
2661.63,8.71517,8.41445,8.38865,8.80059,-3.88612,-14.79252,-15.62239,-14.91751,-11.95456
2688.65,8.7172,8.40577,8.37365,8.7691,-3.91525,-14.75344,-15.56796,-14.85483,-11.93793
2719.46,8.71955,8.39621,8.35701,8.73223,-3.94352,-14.71298,-15.51173,-14.79036,-11.91976
2750.35,8.72192,8.38703,8.34089,8.69452,-3.97088,-14.67106,-15.45367,-14.72413,-11.89997
2781.24,8.72432,8.37822,8.32529,8.65611,-3.99728,-14.6276,-15.39374,-14.65612,-11.87849
2812.05,8.72674,8.36978,8.3102,8.61711,-4.02267,-14.57678,-15.32405,-14.57754,-11.85227
2842.94,8.72919,8.3617,8.2956,8.57769,-4.05,-14.52384,-15.25195,-14.50584,-11.82706
2877.63,8.73197,8.35303,8.27974,8.533,-4.07597,-14.46874,-15.17745,-14.42317,-11.79654
2908.52,8.73446,8.34569,8.26615,8.49315,-4.10056,-14.41142,-15.10053,-14.33839,-11.76369
2943.2,8.7373,8.33784,8.25141,8.44836,-4.12372,-14.35186,-15.02124,-14.25156,-11.72849
2977.96,8.74017,8.33041,8.23722,8.40383,-4.14546,-14.28303,-14.93038,-14.15274,-11.6866
3012.64,8.74306,8.3234,8.22359,8.35977,-4.1679,-14.2114,-14.83667,-14.05155,-11.64178
3051.2,8.74632,8.31607,8.20907,8.31162,-4.18854,-14.13698,-14.74018,-13.94807,-11.59404
3089.83,8.7496,8.30923,8.19518,8.26455,-4.20737,-14.05979,-14.64098,-13.8424,-11.5434
3128.38,8.75293,8.30286,8.18192,8.21882,-4.22439,-13.97173,-14.52884,-13.72373,-11.48438
3166.94,8.75629,8.29695,8.16925,8.17463,-4.24103,-13.88041,-14.41364,-13.61377,-11.42777
3209.36,8.76002,8.29097,8.15599,8.12803,-4.2555,-13.78592,-14.29551,-13.49063,-11.36228
3247.91,8.76345,8.28598,8.14453,8.08767,-4.26783,-13.67932,-14.16346,-13.35384,-11.28711
3290.42,8.76727,8.28098,8.13255,8.0456,-4.27886,-13.57848,-14.03965,-13.22636,-11.21486
3336.64,8.77147,8.27609,8.12021,8.00264,-4.28679,-13.4556,-13.89012,-13.08517,-11.13252
3379.14,8.77537,8.2721,8.10954,7.96603,-4.29351,-13.33877,-13.7492,-12.92992,-11.03932
3425.36,8.77967,8.26826,8.09857,7.92914,-4.29723,-13.2087,-13.59364,-12.78466,-10.94975
3475.52,8.78437,8.2647,8.08746,7.89275,-4.29862,-13.07517,-13.43528,-12.6254,-10.84904
3521.82,8.78876,8.26194,8.07787,7.86241,-4.29734,-12.92775,-13.26191,-12.45192,-10.73653
3571.99,8.79356,8.25949,8.06819,7.83293,-4.29307,-12.77683,-13.08586,-12.27663,-10.62006
3625.95,8.79879,8.25746,8.05856,7.80496,-4.28588,-12.62268,-12.90744,-12.09978,-10.49988
3679.99,8.80408,8.25603,8.0497,7.78065,-4.27587,-12.45423,-12.71396,-11.90885,-10.36727
3734.02,8.80942,8.25516,8.04158,7.75975,-4.26214,-12.2827,-12.5184,-11.71667,-10.23098
3791.85,8.81519,8.25483,8.03367,7.7408,-4.24542,-12.09669,-12.30787,-11.52352,-10.09132
3849.68,8.82103,8.25509,8.02653,7.72507,-4.22442,-11.89602,-12.08241,-11.31669,-9.93897
3907.6,8.82691,8.2559,8.02012,7.71219,-4.1987,-11.70468,-11.8689,-11.09635,-9.77364
3969.3,8.83325,8.25733,8.01404,7.70121,-4.17144,-11.48699,-11.62761,-10.87571,-9.60517
4034.87,8.84003,8.25946,8.00841,7.69224,-4.13741,-11.26719,-11.38558,-10.6421,-9.42379
4100.44,8.84688,8.26217,8.00356,7.6856,-4.10003,-11.03339,-11.12977,-10.40882,-9.23977
4169.89,8.85417,8.26562,7.99924,7.68067,-4.05716,-10.79823,-10.87403,-10.16326,-9.04313
4239.33,8.86152,8.26962,7.99568,7.67748,-4.01098,-10.54973,-10.60537,-9.90589,-8.83399
4312.57,8.86931,8.27437,7.99271,7.67557,-3.95906,-10.30074,-10.33768,-9.64999,-8.62315
4389.75,8.87755,8.27992,7.99038,7.67475,-3.90397,-10.02683,-10.04481,-9.38321,-8.40046
4466.86,8.88582,8.28596,7.9888,7.67477,-3.83999,-9.75345,-9.75405,-9.10616,-8.16629
4547.92,8.89451,8.29277,7.98787,7.67532,-3.77276,-9.46875,-9.45278,-8.83193,-7.93176
4632.77,8.9036,8.30032,7.98762,7.67612,-3.6993,-9.22805,-9.1992,-8.53629,-7.67606
4717.62,8.91265,8.30823,7.98802,7.67682,-3.63454,-9.02661,-8.98773,-8.38994,-7.54845
4810.21,8.92247,8.31717,7.9891,7.67716,-3.57852,-8.71076,-8.65743,-8.08839,-7.28347
4856.51,8.92733,8.32173,7.98986,7.67708,-3.48742,-8.39842,-8.33225,-7.77981,-7.00962
4952.97,8.93736,8.33136,7.99184,7.67618,-3.39349,-8.06653,-7.98815,-7.46503,-6.72768
5053.23,8.94759,8.34144,7.99437,7.674,-3.28958,-7.90247,-7.81858,-7.2119,-6.49918
5157.35,8.95793,8.35185,7.99734,7.67013,-3.23667,-7.56691,-7.47275,-6.97617,-6.28505
5242.6,8.96611,8.3602,7.99994,7.6656,-3.1253,-7.21494,-7.11137,-6.64443,-5.98167
5323.26,8.97357,8.36788,8.00245,7.66008,-3.00399,-6.85932,-6.74755,-6.30985,-5.67345
5439,8.98372,8.37837,8.00599,7.64992,-2.87675,-6.67368,-6.55812,-6.07083,-5.45199
5558.53,8.99335,8.38831,8.00935,7.63647,-2.80847,-6.30942,-6.18735,-5.78799,-5.18865
5645.88,8.99973,8.39484,8.01146,7.62464,-2.6708,-5.93411,-5.80654,-5.43577,-4.85893
5751.46,9.00654,8.4017,8.01347,7.60799,-2.52379,-5.68804,-5.55748,-5.08465,-4.52846
5886.4,9.01358,8.4085,8.01487,7.58278,-2.42455,-5.36201,-5.2282,-4.90387,-4.35767
6025.28,9.01843,8.41268,8.01451,7.54632,-2.28955,-4.97676,-4.84012,-4.53337,-4.00645
6098.6,9.01984,8.41354,7.99633,7.26067,-1.99428,-4.68062,-4.54249,-4.07415,-3.56913
6855.71,8.9597,8.33982,7.65607,6.51369,-0.74636,-2.17943,-2.05071,-1.73416,-1.32422
8065.54,8.22561,7.63856,7.02525,5.88337,0.0108,-0.90438,-0.7983,-0.55848,-0.20828
8872.1,7.06637,6.66426,6.11232,5.26538,0.67938,0.06185,0.13269,0.30685,0.58262
9678.65,5.83668,5.62209,5.23971,4.74934,1.20781,0.66249,0.69011,0.81,1.01234
10485.2,5.01376,4.86533,4.63545,4.36987,1.49392,0.874,0.87715,0.96749,1.1414
11291.8,4.50752,4.39498,4.2626,4.11214,1.50624,0.90673,0.91841,1.00303,1.18503
12098.3,4.1366,4.07494,4.01175,3.9405,1.4868,1.02149,1.04327,1.1224,1.29969
12904.9,3.83667,3.82562,3.81946,3.82139,1.60811,1.2244,1.24423,1.31174,1.46967
13711.4,3.60445,3.62703,3.66616,3.73281,1.78676,1.42121,1.43444,1.48999,1.6304
14518,3.44609,3.48149,3.55097,3.66443,1.93004,1.56229,1.56974,1.61661,1.74812
15324.5,3.35914,3.39138,3.4759,3.61397,2.01129,1.64596,1.65005,1.69206,1.82245
16131.1,3.33177,3.35293,3.44004,3.58276,2.0443,1.6951,1.6981,1.73802,1.87109
16937.6,3.34984,3.35751,3.43909,3.57252,2.06184,1.7387,1.742,1.7811,1.91651
17744.2,3.40009,3.3949,3.46686,3.58353,2.09795,1.79978,1.8038,1.84212,1.97713
18550.8,3.47173,3.45554,3.51679,3.61439,2.17315,1.89064,1.89505,1.93208,2.06375
19357.3,3.55679,3.53167,3.58292,3.66244,2.29174,2.01421,2.01826,2.05358,2.18038
20163.9,3.64968,3.61746,3.66031,3.72443,2.44756,2.16862,2.17141,2.20512,2.32847
20970.4,3.74669,3.7088,3.74505,3.79706,2.63075,2.35365,2.354,2.38746,2.50824
21777,3.84543,3.80283,3.83414,3.87729,2.83197,2.56577,2.564,2.59506,2.71066
22583.5,3.94431,3.89762,3.92517,3.96236,3.04377,2.79579,2.79194,2.81956,2.92979
23390.1,4.04216,3.99168,4.01604,4.04974,3.26047,3.03843,3.03238,3.0559,3.16098
24196.6,4.13779,4.08367,4.10463,4.13679,3.47725,3.28926,3.28074,3.29953,3.39973
25003.2,4.2296,4.17194,4.18838,4.22041,3.68908,3.54311,3.53164,3.54496,3.64053
25809.7,4.31501,4.2541,4.26379,4.2965,3.88953,3.79241,3.77714,3.7841,3.87535
26616.3,4.38969,4.32638,4.32582,4.3592,4.06948,4.02515,4.00475,4.00429,4.09186
27422.9,4.44667,4.38281,4.36709,4.40005,4.21593,4.30111,4.2694,4.18663,4.34075
28229.4,4.47528,4.41435,4.37722,4.4072,4.31154,4.39758,4.35572,4.30583,4.41943
29036,4.46058,4.40815,4.34255,4.36539,4.3358,4.39114,4.33815,4.33408,4.39882
29842.5,4.38448,4.34785,4.2474,4.25786,4.26948,4.2658,4.20301,4.25089,4.26665
30649.1,4.23028,4.21657,4.07818,4.07184,4.1029,4.03103,3.96245,4.05628,4.03488
31455.6,3.99159,4.00385,3.83104,3.80743,3.84527,3.72469,3.65562,3.77802,3.7408
32262.2,3.68189,3.71528,3.52008,3.48523,3.52837,3.39921,3.33381,3.46353,3.43325
33068.7,3.33608,3.3783,3.17917,3.14421,3.19849,3.10008,3.0399,3.16044,3.1531
33875.3,2.99836,3.03581,2.85146,2.82718,2.89978,2.85253,2.79678,2.90013,2.92172
34681.8,2.70405,2.72887,2.57219,2.56372,2.65987,2.66136,2.60823,2.69361,2.74156
35488.4,2.46929,2.4816,2.35737,2.36322,2.48568,2.51814,2.46602,2.53677,2.60297
36295,2.29297,2.29824,2.20469,2.21935,2.3679,2.40878,2.35709,2.41791,2.49143
37101.5,2.16459,2.16982,2.10152,2.11857,2.28844,2.31857,2.26803,2.32334,2.39238
37908.1,2.07121,2.08247,2.03257,2.04667,2.22688,2.23494,2.18751,2.2406,2.29431
38714.6,2.00127,2.02279,1.9843,1.99189,2.16529,2.14898,2.10744,2.15999,2.19057
39521.2,1.94582,1.98002,1.94637,1.94558,2.09228,2.05647,2.02362,2.07542,2.08062
40327.7,1.89846,1.94637,1.91154,1.90191,2.00601,1.9587,1.93638,1.98506,1.97043
41134.3,1.85487,1.91653,1.87509,1.85719,1.9149,1.863,1.85103,1.89186,1.87171
41940.8,1.81221,1.887,1.8341,1.80931,1.8338,1.78276,1.77847,1.80414,1.79961
42747.4,1.76875,1.85563,1.78695,1.7572,1.77645,1.73703,1.73605,1.7362,1.76886
43553.9,1.72347,1.82113,1.73292,1.70054,1.74706,1.74965,1.74987,1.70975,1.78647
44360.5,1.67584,1.78281,1.67188,1.63953,1.73447,1.84387,1.85984,1.82376,1.83097