File: Materials/Tabulated/Stewart2012_V2O3_Ellipsometry_eps2.csv
#First row: Temperature [K]; First column: Frequency [cm-1]

0,120,140,150,160,180,200,230,260,280
51.7808,0.01596,15.30044,13.78569,97.0596,1166.13,1622.24,1592.36,1495.32,1299.04
54.0391,0.01665,14.7793,13.36073,94.54125,1140.56,1588.17,1558.86,1463.87,1271.44
56.2168,0.01735,14.29313,12.96232,92.15048,1116.05,1555.44,1526.71,1433.69,1244.97
58.3945,0.01804,13.83853,12.58807,89.87784,1092.53,1523.97,1495.82,1404.69,1219.56
60.6529,0.01874,13.41255,12.23588,87.71479,1069.93,1493.7,1466.12,1376.8,1195.16
62.8306,0.01943,13.01259,11.9039,85.65359,1048.21,1464.56,1437.53,1349.97,1171.7
65.0083,0.02012,12.63635,11.59046,83.68723,1027.31,1436.48,1410.01,1324.13,1149.13
67.2666,0.02082,12.28179,11.29408,81.8093,1007.18,1409.41,1383.48,1299.23,1127.4
69.4443,0.02151,11.94711,11.01342,80.01398,987.79,1383.29,1357.9,1275.21,1106.46
71.622,0.0222,11.6307,10.7473,78.29594,969.092,1358.08,1333.21,1252.04,1086.28
73.8804,0.0229,11.33112,10.49464,76.65029,951.05,1333.72,1309.37,1229.66,1066.8
76.0581,0.02359,11.04707,10.25445,75.07256,933.6303,1310.17,1286.34,1208.04,1048
78.2358,0.02429,10.77738,10.02587,73.55863,916.8,1287.39,1264.07,1187.14,1029.83
80.4941,0.02498,10.52101,9.80809,72.10471,900.53,1265.35,1242.53,1166.91,1012.27
82.6718,0.02567,10.277,9.60038,70.70731,884.792,1244.01,1221.68,1147.34,995.294
84.8495,0.02637,10.04449,9.40209,69.36319,869.56,1223.33,1201.49,1128.39,978.861
87.1079,0.02706,9.8227,9.21259,68.06937,854.809,1203.29,1181.93,1110.02,962.951
89.2856,0.02776,9.61091,9.03134,66.82308,840.517,1183.85,1162.96,1092.22,947.538
91.4633,0.02845,9.40847,8.85782,65.62176,826.663,1165,1144.57,1074.95,932.6
93.7216,0.02914,9.21479,8.69157,64.46301,813.225,1146.69,1126.72,1058.2,918.115
95.8993,0.02984,9.02931,8.53216,63.3446,800.186,1128.91,1109.39,1041.93,904.062
98.077,0.03053,8.85153,8.37918,62.26448,787.527,1111.64,1092.55,1026.13,890.422
100.255,0.03123,8.68099,8.23226,61.22072,775.2325,1094.85,1076.2,1010.78,877.177
102.513,0.03192,8.51728,8.09108,60.2115,763.286,1078.52,1060.3,995.859,864.31
104.691,0.03261,8.35998,7.95531,59.23514,751.673,1062.64,1044.84,981.348,851.806
106.868,0.03331,8.20874,7.82465,58.29008,740.3787,1047.19,1029.8,967.23,839.648
109.127,0.034,8.06322,7.69884,57.37482,729.391,1032.14,1015.16,953.49,827.822
111.305,0.0347,7.92311,7.57763,56.48799,718.696,1017.49,1000.91,940.113,816.316
113.563,0.03539,7.78812,7.46078,55.62827,708.284,1003.21,987.0244,927.084,805.115
115.741,0.03609,7.65799,7.34806,54.79446,698.142,989.3,973.499,914.389,794.2089
117.918,0.03678,7.53245,7.23928,53.98539,688.26,975.736,960.316,902.017,783.585
120.096,0.03747,7.41127,7.13423,53.19998,678.628,962.508,947.462,889.954,773.232
122.354,0.03817,7.29425,7.03275,52.43721,669.2363,949.603,934.926,878.189,763.141
124.532,0.03886,7.18116,6.93466,51.69612,660.076,937.01,922.695,866.71,753.301
126.71,0.03956,7.07183,6.8398,50.9758,651.138,924.716,910.759,855.509,743.703
128.968,0.04025,6.96607,6.74803,50.27539,642.416,912.712,899.106,844.573,734.338
131.146,0.04094,6.86372,6.65921,49.59407,633.899,900.9879,887.727,833.894,725.1979
133.323,0.04164,6.76461,6.5732,48.93108,625.583,889.533,876.612,823.464,716.274
135.582,0.04233,6.66861,6.48989,48.28569,617.458,878.338,865.751,813.272,707.559
137.76,0.04303,6.57557,6.40914,47.65721,609.5198,867.395,855.136,803.312,699.046
139.937,0.04372,6.48536,6.33087,47.04498,601.76,856.694,844.759,793.5739,690.728
142.196,0.04442,6.39786,6.25496,46.44839,594.174,846.228,834.611,784.052,682.597
144.373,0.04511,6.31295,6.18131,45.86683,586.7554,835.9893,824.6855,774.738,674.648
146.551,0.0458,6.23052,6.10983,45.29977,579.498,825.97,814.974,765.626,666.875
148.809,0.0465,6.15047,6.04043,44.74665,572.398,816.164,805.471,756.7089,659.271
150.987,0.04719,6.0727,5.97304,44.20697,565.448,806.563,796.168,747.98,651.832
153.165,0.04789,5.99712,5.90757,43.68025,558.646,797.162,787.06,739.435,644.551
155.423,0.04858,5.92364,5.84394,43.16603,551.985,787.954,778.14,731.066,637.424
157.601,0.04928,5.85218,5.78209,42.66387,545.461,778.933,769.403,722.869,630.447
159.778,0.04997,5.78266,5.72195,42.17336,539.071,770.094,760.842,714.837,623.613
162.037,0.05066,5.715,5.66346,41.69409,532.809,761.431,752.454,706.967,616.919
164.214,0.05136,5.64914,5.60655,41.22568,526.673,752.939,744.231,699.2536,610.361
166.392,0.05205,5.585,5.55117,40.76777,520.658,744.613,736.17,691.691,603.934
168.651,0.05275,5.52253,5.49726,40.32,514.761,736.448,728.266,684.276,597.635
170.828,0.05344,5.46165,5.44477,39.88206,508.978,728.439,720.514,677.004,591.459
173.006,0.05414,5.40232,5.39364,39.45361,503.306,720.581,712.909,669.87,585.404
175.264,0.05483,5.34448,5.34384,39.03436,497.742,712.872,705.448,662.872,579.465
177.442,0.05552,5.28808,5.29532,38.62401,492.283,705.306,698.126,656.004,573.639
179.62,0.05622,5.23306,5.24802,38.22228,486.925,697.879,690.939,649.263,567.923
181.878,0.05691,5.17937,5.20192,37.82891,481.666,690.588,683.885,642.646,562.3139
184.056,0.05761,5.12698,5.15697,37.44364,476.503,683.43,676.958,636.149,556.809
186.233,0.0583,5.07584,5.11313,37.06621,471.434,676.3991,670.156,629.769,551.404
188.492,0.059,5.0259,5.07037,36.6964,466.456,669.494,663.475,623.503,546.098
190.669,0.05969,4.97713,5.02865,36.33398,461.566,662.7099,656.9119,617.348,540.888
192.847,0.06039,4.92949,4.98794,35.97872,456.763,656.045,650.464,611.301,535.77
195.106,0.06108,4.88295,4.9482,35.63043,452.043,649.495,644.127,605.359,530.7428
197.283,0.06178,4.83746,4.90942,35.28889,447.405,643.058,637.9,599.519,525.804
199.461,0.06247,4.79299,4.87154,34.95391,442.847,636.73,631.778,593.778,520.95
201.719,0.06316,4.74952,4.83456,34.62532,438.367,630.509,625.76,588.135,516.18
203.897,0.06386,4.707,4.79844,34.30291,433.962,624.393,619.843,582.5866,511.492
206.075,0.06455,4.66542,4.76316,33.98653,429.631,618.378,614.024,577.13,506.882
208.333,0.06525,4.62474,4.72868,33.67601,425.371,612.462,608.301,571.764,502.35
210.511,0.06594,4.58494,4.695,33.37119,421.182,606.643,602.671,566.486,497.894
212.688,0.06664,4.54599,4.66207,33.07191,417.061,600.918,597.133,561.293,493.51
214.947,0.06733,4.50786,4.62989,32.77802,413.007,595.286,591.683,556.183,489.199
217.124,0.06803,4.47053,4.59843,32.48938,409.0183,589.743,586.32,551.156,484.957
219.302,0.06872,4.43399,4.56767,32.20585,405.093,584.289,581.042,546.2076,480.784
221.561,0.06942,4.39819,4.53759,31.9273,401.23,578.92,575.846,541.3372,476.676
223.738,0.07011,4.36313,4.50817,31.6536,397.427,573.635,570.732,536.543,472.634
225.916,0.07081,4.32879,4.47939,31.38462,393.684,568.432,565.696,531.822,468.6557
228.174,0.0715,4.29514,4.45124,31.12024,389.9987,563.309,560.737,527.175,464.739
230.352,0.0722,4.26216,4.4237,30.86034,386.37,558.264,555.854,522.597,460.883
232.53,0.07289,4.22984,4.39674,30.60482,382.796,553.296,551.045,518.09,457.085
234.788,0.07359,4.19815,4.37037,30.35357,379.277,548.403,546.307,513.649,453.346
236.966,0.07428,4.16709,4.34455,30.10647,375.81,543.583,541.64,509.275,449.663
239.143,0.07497,4.13663,4.31928,29.86343,372.396,538.8341,537.041,504.966,446.035
241.402,0.07567,4.10676,4.29454,29.62434,369.031,534.156,532.51,500.72,442.461
243.579,0.07636,4.07746,4.27032,29.38912,365.717,529.546,528.045,496.535,438.9395
245.757,0.07706,4.04873,4.2466,29.15768,362.45,525.003,523.644,492.411,435.47
248.015,0.07775,4.02053,4.22338,28.92991,359.231,520.525,519.307,488.3469,432.05
250.193,0.07845,3.99287,4.20063,28.70574,356.059,516.112,515.0306,484.34,428.68
252.371,0.07914,3.96572,4.17835,28.48508,352.932,511.763,510.815,480.391,425.358
254.629,0.07984,3.93907,4.15653,28.26784,349.849,507.474,506.659,476.496,422.084
256.807,0.08053,3.91292,4.13515,28.05396,346.81,503.246,502.5601,472.657,418.855
258.985,0.08123,3.88724,4.1142,27.84336,343.8135,499.0776,498.518,468.87,415.672
261.162,0.08192,3.86203,4.09368,27.63595,340.859,494.967,494.532,465.136,412.533
263.421,0.08262,3.83728,4.07356,27.43167,337.945,490.913,490.6,461.453,409.438
265.598,0.08332,3.81297,4.05385,27.23045,335.072,486.915,486.722,457.82,406.3847
267.776,0.08401,3.7891,4.03454,27.03222,332.238,482.971,482.8958,454.2364,403.373
270.034,0.08471,3.76565,4.0156,26.83691,329.442,479.081,479.121,450.701,400.403
272.212,0.0854,3.74261,3.99704,26.64447,326.6844,475.2433,475.396,447.212,397.472
274.39,0.0861,3.71998,3.97885,26.45483,323.964,471.457,471.721,443.77,394.58
276.648,0.08679,3.69774,3.96101,26.26792,321.28,467.721,468.094,440.3735,391.727
278.826,0.08749,3.67589,3.94352,26.0837,318.631,464.035,464.514,437.021,388.912
281.084,0.08818,3.65441,3.92638,25.9021,316.017,460.398,460.981,433.713,386.133
283.262,0.08888,3.6333,3.90956,25.72307,313.438,456.808,457.493,430.447,383.39
285.44,0.08957,3.61255,3.89308,25.54655,310.893,453.265,454.0499,427.223,380.683
287.698,0.09027,3.59216,3.87691,25.3725,308.38,449.768,450.651,424.041,378.011
289.876,0.09096,3.57211,3.86105,25.20085,305.901,446.316,447.295,420.899,375.3722
292.053,0.09166,3.55239,3.8455,25.03157,303.453,442.9077,443.9809,417.796,372.767
294.231,0.09235,3.533,3.83024,24.86461,301.036,439.543,440.709,414.7331,370.195
296.489,0.09305,3.51394,3.81527,24.69991,298.65,436.222,437.477,411.7081,367.655
298.667,0.09374,3.49519,3.80059,24.53744,296.294,432.9417,434.285,408.721,365.147
300.845,0.09444,3.47675,3.78619,24.37714,293.968,429.703,431.133,405.77,362.67
303.103,0.09514,3.45861,3.77206,24.21897,291.671,426.5048,428.019,402.8558,360.223
305.281,0.09583,3.44076,3.7582,24.06291,289.403,423.346,424.943,399.977,357.806
307.459,0.09653,3.4232,3.7446,23.90888,287.1625,420.227,421.905,397.133,355.419
309.717,0.09722,3.40593,3.73125,23.75688,284.9499,417.146,418.903,394.324,353.06
311.895,0.09792,3.38893,3.71816,23.60685,282.764,414.102,415.936,391.549,350.73
314.072,0.09861,3.37221,3.70531,23.45875,280.606,411.096,413.006,388.806,348.4272
316.331,0.09931,3.35575,3.6927,23.31255,278.473,408.126,410.109,386.096,346.152
318.508,0.10001,3.33955,3.68032,23.16822,276.367,405.191,407.2473,383.419,343.904
320.686,0.1007,3.32361,3.66818,23.02571,274.285,402.292,404.419,380.773,341.681
322.944,0.1014,3.30791,3.65626,22.88499,272.2289,399.428,401.623,378.157,339.485
325.122,0.10209,3.29246,3.64456,22.74604,270.197,396.597,398.86,375.573,337.315
327.3,0.10279,3.27726,3.63308,22.60881,268.189,393.8,396.129,373.018,335.169
329.558,0.10348,3.26228,3.62181,22.47328,266.205,391.036,393.429,370.492,333.048
331.736,0.10418,3.24754,3.61074,22.33942,264.245,388.304,390.76,367.996,330.951
333.914,0.10488,3.23302,3.59988,22.20719,262.307,385.604,388.121,365.528,328.878
336.172,0.10557,3.21873,3.58923,22.07656,260.392,382.936,385.512,363.088,326.828
338.35,0.10627,3.20465,3.57876,21.94752,258.5,380.298,382.932,360.6762,324.801
340.527,0.10696,3.19079,3.56849,21.82002,256.6287,377.691,380.381,358.291,322.797
342.786,0.10766,3.17713,3.55841,21.69404,254.779,375.113,377.859,355.933,320.815
344.963,0.10836,3.16368,3.54851,21.56955,252.951,372.565,375.365,353.601,318.8555
347.141,0.10905,3.15044,3.53879,21.44654,251.144,370.046,372.898,351.294,316.917
349.399,0.10975,3.13739,3.52925,21.32497,249.357,367.555,370.458,349.014,315
351.577,0.11044,3.12453,3.51988,21.20481,247.591,365.092,368.045,346.758,313.103
353.755,0.11114,3.11186,3.51069,21.08605,245.845,362.657,365.658,344.527,311.227
356.013,0.11184,3.09939,3.50166,20.96866,244.118,360.249,363.297,342.32,309.371
358.191,0.11253,3.08709,3.4928,20.85262,242.41,357.867,360.962,340.137,307.536
360.369,0.11323,3.07498,3.48409,20.7379,240.722,355.512,358.651,337.978,305.719
362.627,0.11392,3.06304,3.47555,20.62448,239.052,353.183,356.3655,335.842,303.922
364.805,0.11462,3.05127,3.46716,20.51234,237.401,350.88,354.104,333.729,302.1438
366.982,0.11532,3.03968,3.45892,20.40146,235.7681,348.601,351.867,331.638,300.384
369.241,0.11601,3.02826,3.45084,20.29182,234.153,346.348,349.653,329.57,298.643
371.418,0.11671,3.017,3.4429,20.18339,232.556,344.119,347.462,327.5232,296.92
373.596,0.11741,3.0059,3.4351,20.07616,230.976,341.914,345.294,325.498,295.215
375.854,0.1181,2.99496,3.42745,19.97011,229.413,339.7323,343.149,323.494,293.5269
378.032,0.1188,2.98417,3.41993,19.86522,227.867,337.574,341.026,321.511,291.856
380.21,0.1195,2.97354,3.41255,19.76147,226.338,335.439,338.925,319.549,290.203
382.468,0.12019,2.96306,3.40531,19.65884,224.825,333.327,336.846,317.607,288.566
384.646,0.12089,2.95273,3.3982,19.55732,223.329,331.237,334.787,315.6845,286.946
386.824,0.12159,2.94254,3.39121,19.45688,221.848,329.169,332.75,313.7821,285.342
389.082,0.12228,2.9325,3.38436,19.35751,220.383,327.123,330.734,311.899,283.7543
391.26,0.12298,2.9226,3.37762,19.2592,218.934,325.098,328.738,310.035,282.182
393.437,0.12368,2.91284,3.37101,19.16192,217.5,323.094,326.7616,308.19,280.626
395.696,0.12437,2.90321,3.36452,19.06566,216.081,321.111,324.8054,306.3642,279.085
397.873,0.12507,2.89371,3.35815,18.97041,214.678,319.149,322.8688,304.556,277.559
400.051,0.12577,2.88435,3.3519,18.87614,213.288,317.207,320.951,302.767,276.048
402.309,0.12646,2.87512,3.34576,18.78286,211.914,315.285,319.0531,300.995,274.551
404.487,0.12716,2.86601,3.33973,18.69053,210.553,313.382,317.174,299.24,273.069
406.665,0.12786,2.85703,3.33381,18.59914,209.207,311.499,315.312,297.503,271.602
408.923,0.12855,2.84818,3.328,18.50869,207.874,309.635,313.47,295.784,270.148
411.101,0.12925,2.83944,3.3223,18.41915,206.556,307.79,311.645,294.081,268.709
413.279,0.12995,2.83083,3.3167,18.33052,205.251,305.963,309.838,292.395,267.283
415.456,0.13064,2.82233,3.3112,18.24277,203.959,304.155,308.048,290.7249,265.8703
417.715,0.13134,2.81394,3.30581,18.1559,202.68,302.3649,306.2758,289.071,264.471
419.892,0.13204,2.80567,3.30051,18.0699,201.415,300.5927,304.521,287.434,263.085
422.07,0.13273,2.79752,3.29532,17.98475,200.1618,298.838,302.782,285.812,261.712
424.328,0.13343,2.78947,3.29021,17.90044,198.922,297.101,301.06,284.206,260.352
426.506,0.13413,2.78153,3.28521,17.81695,197.694,295.381,299.355,282.616,259.005
428.764,0.13483,2.7737,3.28029,17.73428,196.479,293.678,297.666,281.04,257.67
430.942,0.13552,2.76597,3.27547,17.65241,195.276,291.992,295.992,279.4798,256.347
433.12,0.13622,2.75834,3.27074,17.57133,194.085,290.322,294.335,277.934,255.0364
435.378,0.13692,2.75082,3.26609,17.49104,192.906,288.668,292.693,276.403,253.738
437.556,0.13762,2.7434,3.26153,17.41151,191.739,287.031,291.067,274.887,252.4509
439.733,0.13831,2.73608,3.25706,17.33275,190.583,285.409,289.455,273.384,251.176
441.992,0.13901,2.72885,3.25267,17.25473,189.438,283.803,287.859,271.896,249.912
444.17,0.13971,2.72172,3.24837,17.17745,188.3053,282.212,286.277,270.422,248.66
446.347,0.14041,2.71468,3.24414,17.10089,187.183,280.637,284.71,268.961,247.419
448.525,0.1411,2.70774,3.24,17.02506,186.072,279.077,283.157,267.514,246.189
450.783,0.1418,2.70089,3.23593,16.94993,184.972,277.532,281.619,266.08,244.969
452.961,0.1425,2.69412,3.23194,16.8755,183.883,276.001,280.095,264.659,243.7611
455.139,0.1432,2.68745,3.22803,16.80176,182.804,274.485,278.584,263.252,242.563
457.397,0.14389,2.68086,3.22419,16.72869,181.736,272.983,277.0875,261.857,241.376
459.575,0.14459,2.67436,3.22043,16.6563,180.678,271.495,275.604,260.475,240.199
461.833,0.14529,2.66795,3.21674,16.58457,179.631,270.021,274.135,259.106,239.033
464.011,0.14599,2.66162,3.21312,16.51349,178.593,268.5612,272.678,257.749,237.877
466.188,0.14668,2.65537,3.20956,16.44306,177.5656,267.115,271.234,256.404,236.73
468.366,0.14738,2.6492,3.20608,16.37326,176.548,266.397,269.804,255.404,235.594
470.625,0.14808,2.64312,3.20267,16.30408,175.5399,264.97,268.386,254.41,234.467
472.802,0.14878,2.63711,3.19932,16.23553,174.542,263.557,266.981,253.095,233.35
474.98,0.14948,2.63118,3.19604,16.16759,173.553,262.157,265.588,251.793,232.242
477.238,0.15017,2.62532,3.19283,16.10025,172.573,261.462,264.896,250.823,231.144
479.416,0.15087,2.61954,3.18967,16.0335,171.603,260.081,263.522,249.86,230.055
481.594,0.15157,2.61384,3.18658,15.96734,170.642,258.713,262.159,248.586,228.975
483.852,0.15227,2.60821,3.18355,15.90176,169.69,257.357,260.809,247.323,227.905
486.03,0.15297,2.60265,3.18059,15.83675,168.747,256.684,260.138,246.383,227.108
488.207,0.15366,2.59716,3.17768,15.77231,168.2788,255.347,258.805,245.449,226.316
490.466,0.15436,2.59175,3.17483,15.70842,167.349,254.022,257.4843,244.214,225.267
492.643,0.15506,2.5864,3.17204,15.64509,166.428,252.708,256.175,242.99,224.227
494.821,0.15576,2.58112,3.16931,15.5823,165.515,252.0563,255.524,242.078,223.453
497.08,0.15646,2.57591,3.16663,15.52004,165.0624,250.761,254.231,241.173,222.6839
499.257,0.15716,2.57077,3.164,15.45832,164.163,249.477,252.95,239.975,221.665
501.435,0.15785,2.56569,3.16144,15.39711,163.271,248.205,251.679,238.788,220.6554
503.693,0.15855,2.56068,3.15892,15.33644,162.388,247.5726,251.048,237.903,219.903
505.871,0.15925,2.55573,3.15646,15.27626,161.949,246.317,249.793,237.0255,219.156
508.049,0.15995,2.55084,3.15405,15.2166,161.0785,245.073,248.55,235.864,218.166
510.307,0.16065,2.54601,3.15169,15.15743,160.216,243.84,247.317,234.711,217.185
512.485,0.16135,2.54125,3.14938,15.09875,159.3605,243.227,246.704,233.854,216.454
514.662,0.16205,2.53655,3.14712,15.04056,158.936,242.01,245.487,233.002,215.727
516.921,0.16274,2.5319,3.14491,14.98284,158.0926,240.804,244.2796,231.874,214.765
519.098,0.16344,2.52732,3.14274,14.92562,157.257,239.608,243.083,230.756,213.811
521.276,0.16414,2.52279,3.14063,14.86885,156.429,239.014,242.4879,229.923,213.1
523.535,0.16484,2.51832,3.13855,14.81255,156.018,237.834,241.306,229.096,212.394
525.712,0.16554,2.51391,3.13653,14.75671,155.201,236.664,240.134,228.0018,211.458
527.89,0.16624,2.50955,3.13455,14.70132,154.392,235.5045,238.972,226.916,210.53
530.148,0.16694,2.50525,3.13262,14.64637,153.59,234.928,238.394,226.108,209.839
532.326,0.16764,2.50101,3.13072,14.59188,153.192,233.784,237.246,225.305,209.152
534.504,0.16834,2.49681,3.12888,14.53781,152.4,232.649,236.108,224.243,208.243
536.762,0.16903,2.49267,3.12707,14.49755,151.616,231.5239,234.9791,223.189,207.34
538.94,0.16973,2.48858,3.12531,14.45752,150.839,230.965,234.418,222.404,206.667
541.117,0.17043,2.48455,3.12358,14.40453,150.4534,229.854,233.3032,221.624,205.999
543.376,0.17113,2.48056,3.1219,14.35195,149.687,228.753,232.197,220.592,205.114
545.553,0.17183,2.47662,3.12107,14.31279,148.9271,227.661,231.1006,219.568,204.236
547.731,0.17253,2.47274,3.11945,14.27386,148.174,227.119,230.556,218.806,203.5812
549.989,0.17323,2.46986,3.11786,14.22232,147.8,226.041,229.472,218.049,202.931
552.167,0.17393,2.467,3.11631,14.17117,147.057,224.972,228.3977,217.046,202.069
554.345,0.17463,2.46323,3.11556,14.13308,146.321,223.913,227.332,216.052,201.214
556.603,0.17533,2.45952,3.11406,14.0952,145.591,223.386,226.802,215.311,200.577
558.781,0.17603,2.45676,3.11261,14.04504,145.229,222.34,225.7493,214.575,199.944
560.959,0.17673,2.45403,3.11119,13.99528,144.508,221.302,224.705,213.601,199.105
563.217,0.17743,2.45043,3.1105,13.9582,143.795,220.273,223.669,212.634,198.273
565.395,0.17813,2.44687,3.10913,13.92134,143.087,219.762,223.154,211.914,197.653
567.008,0.17883,2.44423,3.1078,13.87252,142.736,218.7454,222.13,211.199,197.036
568.702,0.17918,2.44162,3.10651,13.82407,142.037,217.738,221.115,210.252,196.219
570.879,0.17988,2.43817,3.10587,13.78797,141.345,216.738,220.108,209.3129,195.409
573.138,0.18058,2.43477,3.10463,13.75209,140.659,216.242,219.6071,208.614,194.805
574.751,0.18128,2.43225,3.10341,13.70455,140.318,215.255,218.612,207.918,194.2045
576.444,0.18163,2.42975,3.10223,13.65738,139.641,214.276,217.6244,206.997,193.409
578.622,0.18233,2.42645,3.10166,13.62223,138.9699,213.3047,216.645,206.084,192.619
580.8,0.18303,2.42319,3.10052,13.58728,138.304,212.822,216.158,205.404,192.031
582.494,0.18373,2.42078,3.09942,13.54098,137.974,211.863,215.19,204.728,191.446
584.107,0.18408,2.41839,3.09835,13.49504,137.317,210.912,214.229,203.8324,190.671
586.284,0.18478,2.41523,3.09783,13.46081,136.666,209.968,213.277,202.944,189.901
588.543,0.18548,2.41212,3.0968,13.42675,136.02,209.5,212.803,202.283,189.328
590.156,0.18618,2.40981,3.09581,13.38165,135.7,208.568,211.861,201.625,188.757
591.85,0.18653,2.40752,3.09484,13.33687,135.062,207.643,210.927,200.754,188.002
594.027,0.18723,2.40451,3.09437,13.30351,134.431,206.726,210,199.89,187.252
596.286,0.18793,2.40153,3.09345,13.27033,133.804,206.27,209.539,199.247,186.693
597.899,0.18863,2.39932,3.09255,13.22637,133.493,205.364,208.622,198.607,186.137
599.512,0.18898,2.39713,3.09168,13.18273,132.875,204.465,207.713,197.76,185.4008
601.77,0.18968,2.39424,3.09126,13.15022,132.2617,203.5737,206.811,196.919,184.67
603.948,0.19038,2.39139,3.09043,13.11787,131.654,203.131,206.362,196.293,184.125
605.642,0.19108,2.38928,3.08963,13.07502,131.352,202.25,205.471,195.6704,183.583
607.255,0.19143,2.38719,3.08885,13.03247,130.752,201.376,204.586,194.846,182.865
609.433,0.19213,2.38443,3.08848,13.00077,130.1566,200.508,203.707,194.028,182.152
611.691,0.19283,2.3817,3.08774,12.96923,129.567,200.0775,203.271,193.418,181.62
613.304,0.19353,2.37968,3.08703,12.92745,129.2734,199.221,202.402,192.813,181.092
614.998,0.19388,2.37768,3.08634,12.88596,128.691,198.371,201.541,192.0102,180.391
617.175,0.19458,2.37504,3.08601,12.85503,128.1131,197.527,200.6858,191.214,179.696
619.434,0.19528,2.37243,3.08536,12.82428,127.54,197.108,200.2607,190.621,179.177
621.047,0.19598,2.3705,3.08473,12.78352,127.256,196.2743,199.415,190.031,178.662
622.66,0.19633,2.36859,3.08412,12.74305,126.69,195.447,198.576,189.25,177.9785
624.918,0.19704,2.36606,3.08383,12.71288,126.129,194.627,197.744,188.475,177.3
627.096,0.19774,2.36357,3.08326,12.68288,125.573,194.219,197.33,187.8969,176.794
628.79,0.19844,2.36172,3.08271,12.64311,125.296,193.408,196.506,187.323,176.291
630.403,0.19879,2.35989,3.08219,12.60363,124.747,192.603,195.6893,186.562,175.625
632.661,0.19949,2.35747,3.08193,12.57418,124.202,191.8041,194.878,185.807,174.963
634.839,0.20019,2.35509,3.08144,12.54491,123.662,191.407,194.475,185.245,174.4691
636.452,0.20089,2.35332,3.08097,12.50609,123.394,190.618,193.673,184.685,173.978
638.146,0.20124,2.35157,3.08052,12.46756,122.86,189.834,192.877,183.945,173.327
640.324,0.20194,2.34927,3.0803,12.43882,122.331,189.057,192.087,183.209,172.681
642.501,0.20265,2.34699,3.07988,12.41025,121.806,188.67,191.694,182.662,172.199
644.195,0.20335,2.3453,3.07948,12.37238,121.545,187.902,190.913,182.117,171.72
645.808,0.2037,2.34363,3.0791,12.33475,121.027,187.139,190.137,181.395,171.085
648.067,0.2044,2.34142,3.07892,12.3067,120.513,186.382,189.367,180.679,170.454
650.244,0.2051,2.33924,3.07857,12.27879,120.003,186.006,188.985,180.145,169.984
651.938,0.2058,2.33763,3.07823,12.24181,119.75,183.594,186.53,178.911,168.895
653.551,0.20615,2.33603,3.07792,12.20507,118.128,181.062,183.952,176.49,166.757
655.729,0.20685,2.33392,3.07777,12.17768,116.428,178.595,181.438,174.131,164.6688
657.987,0.20756,2.33184,3.07748,12.15043,114.776,176.192,178.987,171.831,162.628
659.6,0.20826,2.33029,3.07721,12.11431,113.17,173.8491,176.596,169.588,160.635
661.294,0.20861,2.32877,3.07696,12.07842,111.609,171.565,174.264,167.401,158.6866
663.472,0.20931,2.32675,3.07684,12.05167,110.09,169.338,171.989,165.268,156.7819
665.649,0.21001,2.32476,3.07662,11.98976,108.612,167.166,169.769,163.187,154.92
667.343,0.21072,2.32329,3.07641,11.86808,107.175,165.048,167.603,161.156,153.099
668.956,0.21107,2.32183,3.07622,11.74917,105.776,162.9805,165.488,159.174,151.318
671.215,0.21177,2.3199,3.07613,11.63294,104.415,160.963,163.423,157.239,149.575
673.392,0.21247,2.318,3.07596,11.51931,103.09,158.994,161.407,155.35,147.87
675.086,0.21317,2.3166,3.07581,11.4082,101.8,157.073,159.439,153.506,146.202
676.699,0.21352,2.3152,3.07567,11.29952,100.543,155.196,157.516,151.705,144.57
678.877,0.21423,2.31336,3.07561,11.1932,99.31988,153.363,155.637,149.945,142.971
681.135,0.21493,2.31155,3.07529,11.08917,98.12807,151.573,153.801,148.226,141.407
682.748,0.21563,2.3102,3.07512,10.98736,96.96694,149.823,152.007,146.546,139.874
684.442,0.21598,2.30712,3.07512,10.88771,95.83551,148.1142,150.2541,144.904,138.374
686.62,0.21668,2.30115,3.07527,10.79015,94.73284,146.444,148.54,143.299,136.9036
688.798,0.21739,2.29546,3.07557,10.69462,93.65801,144.811,146.864,141.73,135.463
690.491,0.21809,2.29003,3.07601,10.60107,92.61014,143.214,145.226,140.196,134.053
694.363,0.21844,2.28485,3.07657,10.50943,91.5885,141.6533,143.6234,138.695,132.67
702.025,0.22072,2.27991,3.07726,10.41964,90.59201,140.126,142.056,137.228,131.314
709.768,0.22318,2.27521,3.07806,10.33167,89.62001,138.633,140.522,135.792,129.986
717.511,0.22565,2.27072,3.07896,10.24546,88.67175,137.1714,139.022,134.386,128.683
725.173,0.22811,2.26645,3.07996,10.16096,87.74646,135.7414,137.554,133.011,127.406
732.916,0.23057,2.26239,3.08105,10.07812,86.84345,134.342,136.116,131.665,126.154
740.659,0.23303,2.25852,3.08222,9.99691,85.96203,132.972,134.71,130.348,124.925
748.321,0.2355,2.25485,3.08348,9.91727,85.10164,131.6307,133.333,129.058,123.72
756.064,0.23796,2.25135,3.0848,9.83916,84.2614,130.317,131.984,127.794,122.538
763.807,0.24043,2.24804,3.08619,9.76255,83.44082,129.031,130.663,126.557,121.378
771.469,0.24289,2.24489,3.08764,9.68739,82.63929,127.771,129.37,125.345,120.239
779.212,0.24536,2.2419,3.08915,9.61365,81.85625,126.537,128.103,124.1571,119.122
786.875,0.24783,2.23907,3.09071,9.54129,81.09112,125.327,126.862,122.993,118.025
794.617,0.2503,2.23639,3.09231,9.47028,80.34335,124.142,125.645,121.853,116.949
802.36,0.25276,2.23386,3.09395,9.40059,79.61243,122.9801,124.453,120.735,115.891
810.023,0.25523,2.23146,3.09563,9.33218,78.89796,121.841,123.285,119.638,114.853
817.766,0.25771,2.2292,3.09734,9.26501,78.19923,120.724,122.139,118.564,113.8337
825.508,0.26018,2.22706,3.09908,9.19906,77.51589,119.629,121.016,117.51,112.832
833.171,0.26265,2.22505,3.10085,9.1343,76.84747,118.555,119.915,116.4756,111.848
840.914,0.26512,2.22316,3.10263,9.07071,76.19353,117.502,118.835,115.4613,110.882
848.657,0.2676,2.22138,3.10443,9.00824,75.55364,116.469,117.776,114.466,109.932
856.319,0.27007,2.21971,3.10625,8.9469,74.92739,115.455,116.737,113.49,108.999
864.062,0.27255,2.21814,3.10808,8.88662,74.31445,114.459,115.718,112.531,108.082
871.805,0.27502,2.21668,3.10991,8.8274,73.71428,113.483,114.717,111.59,107.1803
879.467,0.2775,2.21531,3.11175,8.76921,73.12658,112.5237,113.736,110.6664,106.294
887.21,0.27998,2.21403,3.11359,8.71204,72.55099,111.5823,112.7719,109.759,105.423
894.953,0.28246,2.21284,3.11543,8.65584,71.98716,110.658,111.826,108.868,104.566
902.615,0.28494,2.21174,3.11726,8.54634,71.43474,109.75,110.897,107.993,103.723
910.358,0.28742,2.21072,3.11909,8.46663,70.89342,108.859,109.985,107.134,102.895
918.101,0.2899,2.20978,3.12091,8.36347,70.36293,107.983,109.09,106.289,102.08
925.763,0.29239,2.20891,3.12273,8.28834,69.84283,107.122,108.21,105.459,101.278
933.506,0.29487,2.20812,3.12452,8.14363,69.33289,106.276,107.346,104.644,100.489
941.249,0.29735,2.20739,3.12631,8.09697,68.83283,105.445,106.497,103.842,99.71263
948.911,0.29984,2.20673,3.12808,8.05107,68.34237,104.628,105.663,103.053,98.9488
956.654,0.30233,2.20614,3.12983,8.00591,67.86122,103.825,104.843,102.278,98.19706
964.317,0.30481,2.2056,3.13326,7.96149,67.38913,103.036,104.037,101.516,97.45714
972.059,0.3073,2.20512,3.15226,7.91778,66.92585,102.259,103.245,100.766,96.72887
979.802,0.30979,2.20338,3.15356,7.87477,66.47118,101.496,102.466,100.028,96.01181
987.465,0.31228,2.20363,3.15482,7.83246,66.02477,100.745,101.7,99.30264,95.30579
995.208,0.31477,2.20382,3.15604,7.79082,65.58646,100.006,100.947,98.58846,94.61058
1002.95,0.31727,2.20403,3.15722,7.74984,65.156,99.27941,100.207,97.88559,93.92595
1134.1,0.31976,2.20427,3.15836,7.70951,64.73319,98.56427,99.47798,97.19372,93.25163
1157.24,0.36357,2.20452,3.15947,7.66982,64.31782,97.86048,98.76115,96.5126,92.58743
1176.52,0.36986,2.20479,3.16053,7.63075,63.90968,97.16787,98.05592,95.84196,91.93312
1184.26,0.37615,2.20507,3.16156,7.5923,63.50862,96.48602,97.36183,95.18163,91.28856
1191.93,0.37867,2.20537,3.16254,7.55445,63.11436,95.81474,96.67869,94.53119,90.65338
1199.67,0.38119,2.20568,3.16348,7.51719,62.72675,95.15379,96.00624,93.89048,90.02746
1207.41,0.38372,2.20601,3.16438,7.48051,62.34563,94.50293,95.34422,93.25925,89.41061
1215.07,0.38624,2.20634,3.16524,7.4444,61.9708,93.86191,94.6924,92.63729,88.80262
1222.82,0.38876,2.20669,3.16606,7.40885,61.60211,93.23052,94.05052,92.02437,88.20332
1230.48,0.39129,2.20705,3.16684,7.37385,61.23939,92.60853,93.41836,91.42027,87.6125
1238.22,0.39382,2.20741,3.16757,7.33939,60.88248,91.9958,92.79575,90.82487,87.03009
1245.97,0.39635,2.20778,3.16826,7.30547,60.53128,91.39197,92.18232,90.23779,86.45573
1253.63,0.39887,2.20816,3.16891,7.27206,60.18554,90.79689,91.57793,89.65891,85.88935
1261.37,0.40141,2.20854,3.16951,7.23917,59.84516,90.21039,90.98237,89.08806,85.33077
1269.11,0.40394,2.20893,3.17008,7.20678,59.51,89.63226,90.39543,88.52503,84.77984
1276.78,0.40647,2.20932,3.1706,7.17488,59.17994,89.06231,89.81691,87.96964,84.23639
1284.52,0.40901,2.20971,3.17107,7.14348,58.85482,88.50036,89.24662,87.42172,83.70027
1292.26,0.41154,2.21011,3.17151,7.11255,58.53453,87.94631,88.68445,86.88108,83.17132
1299.92,0.41408,2.21051,3.1719,7.08209,58.21899,87.39983,88.13005,86.34764,82.64948
1307.67,0.41662,2.2109,3.17225,7.05209,57.90798,86.86084,87.58334,85.82109,82.13447
1315.41,0.41916,2.2113,3.17256,7.02256,57.60145,86.32915,87.04412,85.30134,81.6262
1323.07,0.4217,2.2117,3.17282,6.99347,57.29926,85.80462,86.51223,84.78824,81.12454
1330.81,0.42424,2.2121,3.17304,6.96482,57.00131,85.28708,85.98749,84.28162,80.62935
1338.56,0.42679,2.21249,3.17322,6.9366,56.7075,84.77638,85.46976,83.78136,80.14052
1346.22,0.42933,2.21289,3.17336,6.90881,56.41772,84.27238,84.95887,83.2873,79.6579
1353.96,0.43188,2.21328,3.17345,6.88145,56.13186,83.775,84.45474,82.79937,79.18145
1361.71,0.43443,2.21366,3.17351,6.85449,55.84988,83.28394,83.95707,82.31731,78.71091
1369.37,0.43698,2.21405,3.17352,6.82795,55.57159,82.79918,83.4658,81.84105,78.24622
1377.11,0.43953,2.21443,3.17349,6.80181,55.29695,82.32054,82.98078,81.37047,77.78728
1384.85,0.44208,2.2148,3.17342,6.77606,55.02587,81.84792,82.50188,80.90543,77.33396
1392.52,0.44464,2.21517,3.1733,6.7507,54.75826,81.38116,82.02895,80.44582,76.88617
1400.26,0.44719,2.21553,3.17315,6.72572,54.49403,80.92017,81.56187,79.99151,76.44377
1407.92,0.44975,2.21589,3.17296,6.70112,54.23311,80.46487,81.10057,79.54241,76.00669
1415.66,0.45231,2.21624,3.17272,6.67689,53.97544,80.01502,80.6448,79.09844,75.57485
1423.41,0.45487,2.21658,3.17245,6.65304,53.72089,79.57059,80.19452,78.6594,75.14807
1431.07,0.45743,2.21691,3.17214,6.62954,53.46941,79.13143,79.74957,78.22522,74.72629
1438.81,0.45999,2.21724,3.17178,6.6064,53.22093,78.69746,79.30988,77.7958,74.3094
1446.56,0.46256,2.21756,3.17139,6.58361,52.97538,78.05598,78.6599,77.37105,73.89733
1454.22,0.46512,2.21787,3.17096,6.56116,52.6124,77.63449,78.23281,76.74246,73.28805
1465.83,0.46769,2.21817,3.17049,6.53906,52.37387,77.21782,77.81058,76.32896,72.88762
1473.58,0.47155,2.21861,3.16971,6.50653,52.13805,76.80593,77.39316,75.91984,72.49173
1481.24,0.47412,2.21889,3.16915,6.48526,51.90489,76.19666,76.77564,75.51491,72.1002
1488.98,0.47669,2.21916,3.16855,6.46432,51.55992,75.79609,76.36961,74.9153,71.52101
1500.51,0.47926,2.21942,3.16791,6.44369,51.33306,75.39993,75.968,74.52062,71.14016
1508.26,0.48313,2.21979,3.16688,6.41335,51.10864,74.81374,75.37367,73.93598,70.57661
1516,0.48571,2.22002,3.16615,6.3935,50.77645,74.42819,74.9827,73.55104,70.20594
1527.53,0.48958,2.22036,3.16499,6.36431,50.55788,73.85757,74.40396,73.16985,69.83922
1535.28,0.49216,2.22056,3.16417,6.34523,50.23425,73.48211,74.02309,72.605,69.29641
1546.81,0.49474,2.22076,3.16332,6.32644,50.02121,72.92622,73.45906,72.2329,68.93924
1554.55,0.49862,2.22103,3.16198,6.2988,49.70562,72.56037,73.08778,71.6813,68.41037
1566.09,0.50121,2.2212,3.16104,6.28073,49.49782,72.01855,72.53779,71.31784,68.0623
1573.83,0.5051,2.22143,3.15957,6.25416,49.18988,71.66185,72.17563,70.77891,67.5468
1585.36,0.50769,2.22157,3.15855,6.2368,48.98704,71.13347,71.63902,70.24732,67.03906
1593.11,0.51158,2.22176,3.15695,6.21126,48.68639,70.61279,71.11005,69.89687,66.70474
1604.72,0.51547,2.22191,3.15529,6.18633,48.38987,70.26985,70.76157,69.37699,66.20939
1616.25,0.51807,2.22201,3.15414,6.17004,48.19445,69.76158,70.24492,68.86388,65.72123
1624,0.52197,2.22212,3.15236,6.14609,47.90461,69.26048,69.73538,68.35739,65.24007
1635.53,0.52588,2.2222,3.15052,6.12271,47.61861,68.7664,69.23278,68.0233,64.9231
1647.15,0.52979,2.22226,3.1486,6.0999,47.33635,68.27906,68.73686,67.52746,64.45325
1658.68,0.5324,2.22229,3.14729,6.08501,47.0577,67.79831,68.24744,67.03772,63.98987
1670.29,0.53631,2.2223,3.14527,6.06312,46.78255,67.48139,67.9247,66.55397,63.53287
1681.83,0.54023,2.22228,3.14318,6.04177,46.60102,67.01124,67.44575,66.07605,63.08205
1689.57,0.54416,2.22224,3.14104,6.02095,46.33151,66.54722,66.97284,65.6038,62.63726
1701.1,0.54808,2.22216,3.13883,6.00065,46.06524,65.93784,66.35146,65.13714,62.19839
1712.72,0.55202,2.22206,3.13656,5.98086,45.71514,65.48751,65.89202,64.67584,61.76522
1728.12,0.55595,2.22193,3.13424,5.96157,45.45611,65.04278,65.43811,64.21981,61.33764
1739.74,0.55989,2.22178,3.13187,5.94278,45.20005,64.60353,64.98957,63.76892,60.91551
1751.27,0.56384,2.22159,3.12943,5.92447,44.94686,64.16963,64.54629,63.17552,60.36091
1762.81,0.56779,2.22138,3.12695,5.90664,44.69651,63.74088,64.10807,62.7362,59.95101
1774.42,0.57306,2.22106,3.12355,5.88359,44.44886,63.17706,63.53148,62.30159,59.54609
1785.95,0.57701,2.22078,3.12095,5.86685,44.1228,62.75991,63.10465,61.72931,59.01379
1801.44,0.58098,2.22048,3.1183,5.85055,43.88126,62.2111,62.54279,61.30536,58.6201
1812.97,0.58627,2.22004,3.1147,5.8295,43.56309,61.80491,62.12672,60.88585,58.23107
1828.46,0.59024,2.21967,3.11194,5.81423,43.32733,61.27027,61.57876,60.33313,57.71933
1839.99,0.59422,2.21928,3.10914,5.79938,43.01662,60.87437,61.17277,59.92349,57.34063
1855.4,0.59953,2.21872,3.10535,5.78023,42.78627,60.3531,60.63794,59.38365,56.84234
1867.01,0.60352,2.21827,3.10245,5.76635,42.48261,59.83917,60.11031,58.85092,56.35143
1882.42,0.60884,2.21764,3.09854,5.74846,42.18282,59.45837,59.71915,58.45587,55.98792
1897.82,0.61417,2.21696,3.09455,5.73127,41.96043,58.95667,59.20352,57.93503,55.50932
1909.44,0.61818,2.21642,3.09152,5.71883,41.66709,58.46168,58.6945,57.42075,55.03749
1924.84,0.62352,2.21567,3.08743,5.70283,41.37731,57.97323,58.19191,56.91291,54.57226
1940.25,0.62888,2.21487,3.08328,5.68748,41.09099,57.49107,57.69551,56.41127,54.11336
1955.73,0.63424,2.21404,3.07908,5.67277,40.80801,57.01504,57.20515,55.91571,53.66066
1971.14,0.63961,2.21317,3.07482,5.65869,40.52828,56.54497,56.72068,55.42609,53.21396
1986.54,0.64499,2.21226,3.07052,5.64521,40.25173,56.08072,56.24195,54.94229,52.77314
2002.03,0.65038,2.21132,3.06617,5.63233,39.97828,55.62206,55.76875,54.46412,52.33796
2017.43,0.65578,2.21034,3.06177,5.62003,39.70783,55.05641,55.18486,53.87418,51.80174
2032.84,0.66119,2.20932,3.05733,5.6083,39.37387,54.60989,54.72369,53.40828,51.37877
2052.12,0.66796,2.20801,3.05173,5.5944,39.10992,54.05891,54.15437,52.94767,50.96101
2067.6,0.67339,2.20693,3.04721,5.58387,38.78386,53.62374,53.70451,52.3791,50.44588
2086.88,0.67882,2.20581,3.04266,5.57387,38.52605,53.08663,53.14901,51.9299,50.03928
2102.28,0.68563,2.20438,3.03692,5.56205,38.20748,52.55682,52.60083,51.37532,49.53775
2121.56,0.69109,2.2032,3.0323,5.55315,37.89289,52.1381,52.16744,50.82819,49.04339
2140.84,0.69792,2.2017,3.02649,5.54267,37.64402,51.62095,51.63198,50.28838,48.55601
2156.32,0.70477,2.20015,3.02064,5.53288,37.33634,51.11057,51.10334,49.75573,48.07544
2175.6,0.71164,2.19857,3.01476,5.52376,37.03238,50.60672,50.5813,49.23002,47.6014
2194.88,0.71852,2.19696,3.00886,5.51527,36.73201,50.10922,50.06572,48.71113,47.13375
2214.15,0.72541,2.19532,3.00293,5.50738,36.43515,49.61794,49.55646,48.19893,46.67231
2233.43,0.73232,2.19365,2.99699,5.50006,36.14173,49.03632,48.95342,47.69324,46.21687
2252.71,0.73925,2.19195,2.99102,5.49328,35.79403,48.55809,48.45751,47.19393,45.76728
2275.85,0.74619,2.19024,2.98505,5.487,35.50789,47.99168,47.87009,46.60305,45.2353
2295.13,0.75315,2.1885,2.97907,5.48119,35.16868,47.52577,47.38685,46.11737,44.79805
2318.28,0.76152,2.1864,2.97189,5.47479,34.88943,46.9738,46.81435,45.54246,44.28043
2337.64,0.76852,2.18463,2.9659,5.4699,34.55835,46.42937,46.24967,44.97601,43.77034
2360.7,0.77693,2.18249,2.95873,5.46449,34.23151,45.89228,45.69265,44.41782,43.26752
2383.85,0.78537,2.18033,2.95156,5.45953,33.90883,45.36238,45.14316,43.86773,42.77182
2407,0.79384,2.17817,2.94441,5.45496,33.59023,44.83943,44.60097,43.32555,42.28297
2430.15,0.80233,2.17601,2.93728,5.45072,33.27559,44.32332,44.06599,42.79113,41.80084
2453.3,0.81084,2.17384,2.93017,5.44673,32.96484,43.72958,43.45071,42.26434,41.32527
2476.44,0.81938,2.17168,2.9231,5.44294,32.60708,43.22769,42.93079,41.65917,40.77844
2503.46,0.82795,2.16952,2.91606,5.43928,32.30445,42.65018,42.33276,41.06395,40.24006
2526.61,0.83798,2.16703,2.90789,5.43509,31.95598,42.08107,41.74372,40.56151,39.78511
2553.63,0.84804,2.16455,2.89979,5.43088,31.61232,41.52022,41.16352,39.98421,39.26177
2580.65,0.85669,2.16245,2.8929,5.42718,31.27339,40.9674,40.59195,39.41625,38.74622
2607.59,0.86683,2.16003,2.88492,5.42267,30.93907,40.42248,40.0289,38.8575,38.23831
2634.61,0.877,2.15765,2.87703,5.41786,30.60928,39.88525,39.47417,38.22992,37.66691
2661.63,0.88721,2.15531,2.86922,5.41265,30.2839,39.28055,38.85023,37.69025,37.17472
2688.65,0.89892,2.1527,2.8604,5.40609,29.91736,38.6855,38.23677,37.08404,36.62086
2719.46,0.90921,2.15048,2.85278,5.39972,29.55633,38.09994,37.63363,36.48889,36.07605
2750.35,0.92102,2.14801,2.8442,5.39163,29.20073,37.52364,37.04058,35.90456,35.54004
2781.24,0.93289,2.14563,2.83575,5.38256,28.85041,36.95645,36.45748,35.33084,35.01267
2812.05,0.94481,2.14334,2.82745,5.37242,28.50528,36.32905,35.81316,34.7675,34.49373
2842.94,0.95678,2.14115,2.8193,5.36113,28.12307,35.78066,35.2506,34.14594,33.9198
2877.63,0.96881,2.13907,2.8113,5.34863,27.7886,35.17401,34.62898,33.53697,33.3561
2908.52,0.98242,2.13687,2.80249,5.33304,27.41814,34.57805,34.01905,32.94036,32.80242
2943.2,0.99609,2.13482,2.79389,5.31581,27.05369,33.9926,33.42063,32.35583,32.25856
2977.96,1.00984,2.13292,2.7855,5.29691,26.69515,33.3542,32.76896,31.7831,31.72428
3012.64,1.02367,2.1312,2.77734,5.27635,26.30353,32.72829,32.13094,31.16031,31.14171
3051.2,1.03757,2.12965,2.76941,5.25416,25.91886,32.11466,31.50634,30.55149,30.57053
3089.83,1.05311,2.12814,2.76087,5.22768,25.541,31.51308,30.89489,29.95628,30.01051
3128.38,1.06875,2.12687,2.75262,5.19936,25.16981,30.86498,30.23717,29.37441,29.46144
3166.94,1.08449,2.12584,2.74467,5.16935,24.76899,30.28802,29.65253,28.74939,28.86987
3209.36,1.10034,2.12506,2.73703,5.13782,24.41131,29.66652,29.02373,28.13971,28.29101
3247.91,1.11788,2.12451,2.72898,5.10159,24.02504,29.00396,28.35449,27.54502,27.72464
3290.42,1.13556,2.12428,2.72132,5.06399,23.61204,28.4105,27.75603,26.91292,27.12072
3336.64,1.15338,2.12438,2.71405,5.02531,23.24097,27.77793,27.11919,26.34836,26.57963
3379.14,1.17296,2.12488,2.70657,4.9822,22.84416,27.10978,26.44769,25.69897,25.95527
3425.36,1.19106,2.12571,2.70012,4.94215,22.42348,26.50849,25.84444,25.11625,25.39316
3475.52,1.21263,2.12715,2.69303,4.89453,22.04344,25.8735,25.20845,24.50253,24.79929
3521.82,1.23272,2.12893,2.68699,4.85064,21.64046,25.20832,24.54343,23.90655,24.22074
3571.99,1.25469,2.13136,2.681,4.80352,21.21642,24.56204,23.89847,23.28398,23.61444
3625.95,1.27687,2.13431,2.67559,4.75719,20.80238,23.93418,23.27302,22.68076,23.02509
3679.99,1.301,2.1381,2.67042,4.70853,20.39808,23.28142,22.62392,22.09627,22.45229
3734.02,1.32539,2.14253,2.66594,4.66144,19.97543,22.64873,21.99591,21.49015,21.85646
3791.85,1.35005,2.14759,2.66214,4.6162,19.56337,22.03558,21.38835,20.90414,21.27867
3849.68,1.37677,2.15375,2.65884,4.57001,19.16159,21.40249,20.76212,20.30048,20.6817
3907.6,1.40382,2.16066,2.65633,4.52636,18.74405,20.7528,20.12061,19.68241,20.06866
3969.3,1.43304,2.16888,2.65455,4.48276,18.3125,20.12606,19.50285,19.12184,19.51109
4034.87,1.46451,2.17857,2.65366,4.43987,17.89306,19.4866,18.87365,18.51475,18.90559
4100.44,1.49455,2.18862,2.65376,4.40279,17.46168,18.87116,18.26911,17.93161,18.32242
4169.89,1.52884,2.201,2.65499,4.36488,17.04302,18.24664,17.65668,17.34099,17.73025
4239.33,1.56368,2.21453,2.65739,4.33094,16.61443,17.61609,17.03937,16.77485,17.16124
4312.57,1.60107,2.23007,2.6612,4.29933,16.17759,17.01197,16.44889,16.20419,16.58638
4389.75,1.63912,2.24692,2.66632,4.27188,15.75489,16.40492,15.85649,15.65831,16.0353
4466.86,1.6799,2.26608,2.67314,4.24732,15.32575,15.79766,15.26481,15.0851,15.45546
4547.92,1.72146,2.2867,2.68142,4.22697,14.89172,15.21844,14.7013,14.53907,14.90206
4632.77,1.76812,2.31111,2.69224,4.2092,14.473,14.61706,14.1171,13.99581,14.35052
4717.62,1.8158,2.33733,2.70484,4.19597,14.03299,14.32782,13.83643,13.55517,13.90252
4810.21,1.86679,2.3667,2.71993,4.18669,13.81933,13.74869,13.27506,13.19867,13.53969
4856.51,1.9111,2.39326,2.73431,4.1822,13.38733,13.17853,12.72316,12.66075,12.99164
4952.97,1.94909,2.41675,2.74752,4.18071,12.95619,12.61924,12.18251,12.15246,12.47319
5053.23,2.01051,2.45603,2.77048,4.18233,12.52717,12.1851,11.76334,11.63623,11.94617
5157.35,2.0737,2.49798,2.796,4.18848,12.1897,11.79283,11.38498,11.38962,11.69426
5242.6,2.14382,2.54618,2.82637,4.19973,11.8812,11.2598,10.87139,10.90191,11.19589
5323.26,2.17972,2.57147,2.84269,4.20702,11.45614,10.74383,10.37488,10.4132,10.69631
5439,2.25596,2.62641,2.8789,4.2254,11.03779,10.38806,10.03289,9.94175,10.21431
5558.53,2.34037,2.68902,2.92124,4.24952,10.74505,9.98048,9.64146,9.70415,9.97142
5645.88,2.43087,2.75791,2.96892,4.27876,10.40507,9.49266,9.17351,9.25414,9.51149
5751.46,2.48039,2.79629,2.9959,4.29591,9.99113,9.02756,8.7279,8.81205,9.05992
5886.4,2.58262,2.87683,3.05335,4.33325,9.58868,8.79615,8.50641,8.53361,8.7757
6025.28,2.69571,2.96764,3.11925,4.37666,9.38536,8.33865,8.06897,8.17817,8.41319
6098.6,2.77463,3.03189,3.16648,4.5553,8.9768,7.89871,7.64893,7.77744,8.00501
6855.71,3.14518,3.33966,3.67228,5.00305,7.60775,6.88564,6.68452,6.64607,6.85743
8065.54,4.54431,4.49744,4.64551,5.17299,5.7208,5.15106,5.05164,5.07454,5.28913
8872.1,5.45691,5.20692,5.13885,5.16118,4.94679,4.60567,4.55441,4.59556,4.8224
9678.65,5.78412,5.47051,5.21553,4.97796,4.48485,4.401,4.37736,4.42021,4.63602
10485.2,5.50611,5.25808,4.94255,4.68991,4.28003,4.35833,4.32983,4.35539,4.52122
11291.8,5.08557,4.87364,4.57206,4.37189,4.17501,4.20442,4.1551,4.16098,4.28131
12098.3,4.72145,4.51673,4.2409,4.07321,3.91797,3.85587,3.80652,3.80995,3.92332
12904.9,4.39705,4.21124,3.9624,3.81273,3.53316,3.49284,3.45742,3.4662,3.58144
13711.4,4.07783,3.92977,3.71428,3.58928,3.21738,3.22751,3.20309,3.21415,3.32058
14518,3.75744,3.65521,3.48013,3.39359,3.01487,3.04595,3.02703,3.03651,3.12675
15324.5,3.44804,3.388,3.2559,3.21629,2.877,2.89901,2.88239,2.88887,2.96285
16131.1,3.16545,3.13734,3.04522,3.05175,2.75016,2.7471,2.7318,2.73602,2.79848
16937.6,2.91949,2.91287,2.85406,2.89858,2.59929,2.57128,2.55778,2.56158,2.61855
17744.2,2.71432,2.72084,2.68746,2.75845,2.41455,2.37166,2.3611,2.36636,2.42225
18550.8,2.54985,2.56369,2.54845,2.63438,2.20854,2.15988,2.1534,2.16134,2.21773
19357.3,2.42358,2.44102,2.43812,2.52936,2.00331,1.95044,1.94882,1.95988,2.01595
20163.9,2.33208,2.35088,2.35626,2.4457,1.8186,1.75508,1.75869,1.77275,1.82637
20970.4,2.2719,2.29077,2.30197,2.38487,1.66701,1.58085,1.58972,1.60648,1.65802
21777,2.24012,2.2583,2.2742,2.34777,1.55462,1.4369,1.44978,1.47205,1.52345
22583.5,2.23456,2.25153,2.27208,2.33497,1.48361,1.33264,1.34939,1.3768,1.42645
23390.1,2.25398,2.26923,2.29517,2.34708,1.45459,1.27018,1.29085,1.32297,1.36977
24196.6,2.29808,2.31098,2.34364,2.38501,1.46821,1.25221,1.27692,1.31341,1.3566
25003.2,2.3676,2.37721,2.41829,2.45016,1.52586,1.28275,1.31173,1.35226,1.39114
25809.7,2.46426,2.46923,2.52058,2.54445,1.62994,1.36739,1.40093,1.44504,1.47883
26616.3,2.5907,2.58918,2.65247,2.67025,1.7835,1.51281,1.55113,1.5981,1.62572
27422.9,2.75009,2.73971,2.81598,2.82989,1.98911,1.85721,1.90219,1.8167,1.96681
28229.4,2.94518,2.92338,3.01234,3.02453,2.2468,2.17043,2.21811,2.10116,2.27182
29036,3.17648,3.14118,3.2402,3.25212,2.5507,2.53424,2.5815,2.44106,2.62114
29842.5,3.43893,3.39002,3.49297,3.50415,2.88496,2.91471,2.95713,2.80967,2.98117
30649.1,3.71778,3.65901,3.75538,3.76202,3.22094,3.26305,3.2963,3.16394,3.30604
31455.6,3.98564,3.92596,4.00137,3.99579,3.51945,3.53107,3.55304,3.4555,3.55253
32262.2,4.20561,4.1575,4.19694,4.16951,3.741,3.69163,3.7034,3.64989,3.69832
33068.7,4.3435,4.31741,4.31075,4.25476,3.86104,3.74834,3.75323,3.74047,3.74947
33875.3,4.38385,4.38201,4.32875,4.24477,3.88051,3.72804,3.72952,3.74653,3.73252
34681.8,4.33689,4.3523,4.26167,4.15731,3.82362,3.66494,3.6651,3.6996,3.67973
35488.4,4.23056,4.25197,4.13854,4.02381,3.72564,3.58839,3.5875,3.62991,3.61796
36295,4.09589,4.11381,3.99218,3.87483,3.6199,3.51791,3.51486,3.55942,3.56431
37101.5,3.95685,3.96639,3.84815,3.73175,3.53016,3.46342,3.45644,3.50079,3.52623
37908.1,3.82775,3.82827,3.72135,3.60575,3.46847,3.42725,3.41464,3.45894,3.50349
38714.6,3.71501,3.70855,3.61775,3.50053,3.43594,3.4063,3.38719,3.43322,3.4905
39521.2,3.62009,3.60993,3.53774,3.41539,3.42473,3.39393,3.36876,3.41926,3.47872
40327.7,3.54184,3.53153,3.47879,3.34753,3.42147,3.38187,3.35257,3.41048,3.45961
41134.3,3.47797,3.47087,3.43723,3.29347,3.41267,3.3625,3.33194,3.3996,3.4281
41940.8,3.42591,3.42497,3.40918,3.24971,3.39153,3.33175,3.30234,3.38042,3.38632
42747.4,3.38316,3.39091,3.39099,3.21305,3.36308,3.29294,3.26401,3.35015,3.34761
43553.9,3.34751,3.36604,3.3794,3.18074,3.34466,3.26284,3.22654,3.31275,3.34172
44360.5,3.31703,3.34807,3.37159,3.15047,3.3614,3.2853,3.21967,3.2892,3.42386